"subj" "trial" "RT" "BPR_Resp" "ERR.code" "eat" "targ" "dist" "BPR_dir" "BPR_corrResp" "BPR_pos" "task.soa" "cond" "targ_ID" "subset" "dist_ID" "sem.pair" "blk" "pl" "occ" "sem.kat" "phon.ons" "LatSq1" "LatSq2" "LatSq3" "LatSq4" "cross.coding1" "cross.coding2" "cross.coding3" "cross.coding4" "cross.coding5" "ver"
"1" 1 3 352 "/" "0" "sonafam1" "g_Orgel_.wav" "Orgel___.bmp" "w_Orgel_.bmp" "000" 1 22 1 22 0 0 0 5 11 1 NA NA NA NA NA NA NA NA NA NA NA NA
"2" 1 4 649 "/" "0" "sonafam1" "g_Glocke.wav" "Glocke__.bmp" "w_Glocke.bmp" "000" 1 13 1 13 0 0 0 6 7 1 NA NA NA NA NA NA NA NA NA NA NA NA
"3" 1 5 540 "/" "0" "sonafam1" "g_Katze_.wav" "Katze___.bmp" "w_Katze_.bmp" "000" 1 18 1 18 0 0 0 1 9 1 NA NA NA NA NA NA NA NA NA NA NA NA
"4" 1 6 439 "/" "0" "sonafam1" "g_Gitarr.wav" "Gitarr__.bmp" "w_Gitarr.bmp" "000" 1 12 1 12 0 0 0 5 7 1 NA NA NA NA NA NA NA NA NA NA NA NA
"5" 1 7 511 "/" "0" "sonafam1" "g_Klinge.wav" "Klinge__.bmp" "w_Klinge.bmp" "000" 1 19 2 19 0 0 0 6 9 1 NA NA NA NA NA NA NA NA NA NA NA NA
"6" 1 8 650 "/" "0" "sonafam1" "g_Grille.wav" "Grille__.bmp" "w_Grille.bmp" "000" 1 91 9 91 0 0 0 1 7 1 NA NA NA NA NA NA NA NA NA NA NA NA
"7" 1 9 592 "/" "0" "sonafam1" "g_Trompe.wav" "Trompe__.bmp" "w_Trompe.bmp" "000" 1 31 1 31 0 0 0 5 14 1 NA NA NA NA NA NA NA NA NA NA NA NA
"8" 1 10 596 "/" "0" "sonafam1" "g_Hahn__.wav" "Hahn____.bmp" "w_Hahn__.bmp" "000" 1 14 1 14 0 0 0 1 8 1 NA NA NA NA NA NA NA NA NA NA NA NA
"9" 1 11 712 "/" "0" "sonafam1" "g_Saege_.wav" "Saege___.bmp" "w_Saege_.bmp" "000" 1 24 2 24 0 0 0 4 12 1 NA NA NA NA NA NA NA NA NA NA NA NA
"10" 1 12 737 "/" "0" "sonafam1" "g_Pfeife.wav" "Pfeife__.bmp" "w_Pfeife.bmp" "000" 1 93 9 93 0 0 0 6 6 1 NA NA NA NA NA NA NA NA NA NA NA NA
"11" 1 13 645 "/" "0" "sonafam1" "g_Affe__.wav" "Affe____.bmp" "w_Affe__.bmp" "000" 1 1 2 1 0 0 0 1 1 1 NA NA NA NA NA NA NA NA NA NA NA NA
"12" 1 14 618 "/" "0" "sonafam1" "g_Toilet.wav" "Toilet__.bmp" "w_Toilet.bmp" "000" 1 95 9 95 0 0 0 8 14 1 NA NA NA NA NA NA NA NA NA NA NA NA
"13" 1 15 439 "/" "0" "sonafam1" "g_Schaf_.wav" "Schaf___.bmp" "w_Schaf_.bmp" "000" 1 25 1 25 0 0 0 1 13 1 NA NA NA NA NA NA NA NA NA NA NA NA
"14" 1 16 447 "/" "0" "sonafam1" "g_Hubsch.wav" "Hubsch__.bmp" "w_Hubsch.bmp" "000" 1 96 9 96 0 0 0 2 8 1 NA NA NA NA NA NA NA NA NA NA NA NA
"15" 1 17 510 "/" "0" "sonafam1" "g_Ente__.wav" "Ente____.bmp" "w_Ente__.bmp" "000" 1 7 2 7 0 0 0 1 5 1 NA NA NA NA NA NA NA NA NA NA NA NA
"16" 1 18 662 "/" "0" "sonafam1" "g_Geige_.wav" "Geige___.bmp" "w_Geige_.bmp" "000" 1 11 2 11 0 0 0 5 7 1 NA NA NA NA NA NA NA NA NA NA NA NA
"17" 1 19 827 "/" "0" "sonafam1" "g_Esel__.wav" "Esel____.bmp" "w_Esel__.bmp" "000" 1 8 2 8 0 0 0 1 5 1 NA NA NA NA NA NA NA NA NA NA NA NA
"18" 1 20 571 "/" "0" "sonafam1" "g_Harfe_.wav" "Harfe___.bmp" "w_Harfe_.bmp" "000" 1 16 1 16 0 0 0 5 8 1 NA NA NA NA NA NA NA NA NA NA NA NA
"19" 1 21 703 "/" "0" "sonafam1" "g_Pferd_.wav" "Pferd___.bmp" "w_Pferd_.bmp" "000" 1 23 1 23 0 0 0 1 6 1 NA NA NA NA NA NA NA NA NA NA NA NA
"20" 1 22 547 "/" "0" "sonafam1" "g_Auto__.wav" "Auto____.bmp" "w_Auto__.bmp" "000" 1 2 2 2 0 0 0 2 2 1 NA NA NA NA NA NA NA NA NA NA NA NA
"21" 1 23 551 "/" "0" "sonafam1" "g_Frosch.wav" "Frosch__.bmp" "w_Frosch.bmp" "000" 1 90 9 90 0 0 0 1 6 1 NA NA NA NA NA NA NA NA NA NA NA NA
"22" 1 24 831 "/" "0" "sonafam1" "g_Dudels.wav" "Dudels__.bmp" "w_Dudels.bmp" "000" 1 5 2 5 0 0 0 5 4 1 NA NA NA NA NA NA NA NA NA NA NA NA
"23" 1 25 545 "/" "0" "sonafam1" "g_Loewe_.wav" "Loewe___.bmp" "w_Loewe_.bmp" "000" 1 21 2 21 0 0 0 1 10 1 NA NA NA NA NA NA NA NA NA NA NA NA
"24" 1 26 709 "/" "0" "sonafam1" "g_Zug___.wav" "Zug_____.bmp" "w_Zug___.bmp" "000" 1 32 1 32 0 0 0 2 15 1 NA NA NA NA NA NA NA NA NA NA NA NA
"25" 1 27 632 "/" "0" "sonafam1" "g_Kuh___.wav" "Kuh_____.bmp" "w_Kuh___.bmp" "000" 1 20 1 20 0 0 0 1 9 1 NA NA NA NA NA NA NA NA NA NA NA NA
"26" 1 28 561 "/" "0" "sonafam1" "g_Telefo.wav" "Telefo__.bmp" "w_Telefo.bmp" "000" 1 97 9 97 0 0 0 6 14 1 NA NA NA NA NA NA NA NA NA NA NA NA
"27" 1 29 421 "/" "0" "sonafam1" "g_Hund__.wav" "Hund____.bmp" "w_Hund__.bmp" "000" 1 17 2 17 0 0 0 1 8 1 NA NA NA NA NA NA NA NA NA NA NA NA
"28" 1 30 605 "/" "0" "sonafam1" "g_Kanone.wav" "Kanone__.bmp" "w_Kanone.bmp" "000" 1 92 9 92 0 0 0 7 9 1 NA NA NA NA NA NA NA NA NA NA NA NA
"29" 1 31 484 "/" "0" "sonafam1" "g_Schwei.wav" "Schwei__.bmp" "w_Schwei.bmp" "000" 1 28 2 28 0 0 0 1 13 1 NA NA NA NA NA NA NA NA NA NA NA NA
"30" 1 32 568 "/" "0" "sonafam1" "g_Tromme.wav" "Tromme__.bmp" "w_Tromme.bmp" "000" 1 30 2 30 0 0 0 5 14 1 NA NA NA NA NA NA NA NA NA NA NA NA
"31" 1 33 630 "/" "0" "sonafam1" "g_Staubs.wav" "Staubs__.bmp" "w_Staubs.bmp" "000" 1 29 2 29 0 0 0 3 13 1 NA NA NA NA NA NA NA NA NA NA NA NA
"32" 1 34 497 "/" "0" "sonafam1" "g_Hammer.wav" "Hammer__.bmp" "w_Hammer.bmp" "000" 1 15 1 15 0 0 0 4 8 1 NA NA NA NA NA NA NA NA NA NA NA NA
"33" 1 35 836 "/" "0" "sonafam1" "g_Schiff.wav" "Schiff__.bmp" "w_Schiff.bmp" "000" 1 27 2 27 0 0 0 2 13 1 NA NA NA NA NA NA NA NA NA NA NA NA
"34" 1 36 951 "/" "0" "sonafam1" "g_Bohrer.wav" "Bohrer__.bmp" "w_Bohrer.bmp" "000" 1 4 2 4 0 0 0 4 3 1 NA NA NA NA NA NA NA NA NA NA NA NA
"35" 1 37 510 "/" "0" "sonafam1" "g_Fahrra.wav" "Fahrra__.bmp" "w_Fahrra.bmp" "000" 1 9 1 9 0 0 0 2 6 1 NA NA NA NA NA NA NA NA NA NA NA NA
"36" 1 38 683 "/" "0" "sonafam1" "g_Besen_.wav" "Besen___.bmp" "w_Besen_.bmp" "000" 1 3 1 3 0 0 0 3 3 1 NA NA NA NA NA NA NA NA NA NA NA NA
"37" 1 39 523 "/" "0" "sonafam1" "g_Schere.wav" "Schere__.bmp" "w_Schere.bmp" "000" 1 26 1 26 0 0 0 4 13 1 NA NA NA NA NA NA NA NA NA NA NA NA
"38" 1 40 812 "/" "0" "sonafam1" "g_Pistol.wav" "Pistol__.bmp" "w_Pistol.bmp" "000" 1 94 9 94 0 0 0 7 16 1 NA NA NA NA NA NA NA NA NA NA NA NA
"39" 1 41 740 "/" "0" "sonafam1" "g_Floete.wav" "Floete__.bmp" "w_Floete.bmp" "000" 1 10 2 10 0 0 0 5 6 1 NA NA NA NA NA NA NA NA NA NA NA NA
"40" 1 42 648 "/" "0" "sonafam1" "g_Elefan.wav" "Elefan__.bmp" "w_Elefan.bmp" "000" 1 6 1 6 0 0 0 1 5 1 NA NA NA NA NA NA NA NA NA NA NA NA
"41" 1 45 797 "/" "0" "sonafam2" "g_Trompe.wav" "Trompe__.bmp" "w_______.bmp" "000" 1 31 1 31 0 0 0 5 14 1 NA NA NA NA NA NA NA NA NA NA NA NA
"42" 1 46 668 "/" "0" "sonafam2" "g_Schaf_.wav" "Schaf___.bmp" "w_______.bmp" "000" 1 25 1 25 0 0 0 1 13 1 NA NA NA NA NA NA NA NA NA NA NA NA
"43" 1 47 786 "/" "0" "sonafam2" "g_Fahrra.wav" "Fahrra__.bmp" "w_______.bmp" "000" 1 9 1 9 0 0 0 2 6 1 NA NA NA NA NA NA NA NA NA NA NA NA
"44" 1 48 737 "/" "0" "sonafam2" "g_Toilet.wav" "Toilet__.bmp" "w_______.bmp" "000" 1 95 9 95 0 0 0 8 14 1 NA NA NA NA NA NA NA NA NA NA NA NA
"45" 1 49 756 "/" "0" "sonafam2" "g_Gitarr.wav" "Gitarr__.bmp" "w_______.bmp" "000" 1 12 1 12 0 0 0 5 7 1 NA NA NA NA NA NA NA NA NA NA NA NA
"46" 1 50 664 "/" "0" "sonafam2" "g_Esel__.wav" "Esel____.bmp" "w_______.bmp" "000" 1 8 2 8 0 0 0 1 5 1 NA NA NA NA NA NA NA NA NA NA NA NA
"47" 1 51 599 "/" "0" "sonafam2" "g_Tromme.wav" "Tromme__.bmp" "w_______.bmp" "000" 1 30 2 30 0 0 0 5 14 1 NA NA NA NA NA NA NA NA NA NA NA NA
"48" 1 52 605 "/" "0" "sonafam2" "g_Auto__.wav" "Auto____.bmp" "w_______.bmp" "000" 1 2 2 2 0 0 0 2 2 1 NA NA NA NA NA NA NA NA NA NA NA NA
"49" 1 53 728 "/" "0" "sonafam2" "g_Orgel_.wav" "Orgel___.bmp" "w_______.bmp" "000" 1 22 1 22 0 0 0 5 11 1 NA NA NA NA NA NA NA NA NA NA NA NA
"50" 1 54 726 "/" "0" "sonafam2" "g_Loewe_.wav" "Loewe___.bmp" "w_______.bmp" "000" 1 21 2 21 0 0 0 1 10 1 NA NA NA NA NA NA NA NA NA NA NA NA
"51" 1 55 938 "/" "0" "sonafam2" "g_Pistol.wav" "Pistol__.bmp" "w_______.bmp" "000" 1 94 9 94 0 0 0 7 16 1 NA NA NA NA NA NA NA NA NA NA NA NA
"52" 1 56 1491 "/" "0" "sonafam2" "g_Ente__.wav" "Ente____.bmp" "w_______.bmp" "000" 1 7 2 7 0 0 0 1 5 1 NA NA NA NA NA NA NA NA NA NA NA NA
"53" 1 57 779 "/" "0" "sonafam2" "g_Telefo.wav" "Telefo__.bmp" "w_______.bmp" "000" 1 97 9 97 0 0 0 6 14 1 NA NA NA NA NA NA NA NA NA NA NA NA
"54" 1 58 563 "/" "0" "sonafam2" "g_Hund__.wav" "Hund____.bmp" "w_______.bmp" "000" 1 17 2 17 0 0 0 1 8 1 NA NA NA NA NA NA NA NA NA NA NA NA
"55" 1 59 713 "/" "0" "sonafam2" "g_Saege_.wav" "Saege___.bmp" "w_______.bmp" "000" 1 24 2 24 0 0 0 4 12 1 NA NA NA NA NA NA NA NA NA NA NA NA
"56" 1 60 709 "/" "0" "sonafam2" "g_Elefan.wav" "Elefan__.bmp" "w_______.bmp" "000" 1 6 1 6 0 0 0 1 5 1 NA NA NA NA NA NA NA NA NA NA NA NA
"57" 1 61 815 "/" "0" "sonafam2" "g_Pfeife.wav" "Pfeife__.bmp" "w_______.bmp" "000" 1 93 9 93 0 0 0 6 6 1 NA NA NA NA NA NA NA NA NA NA NA NA
"58" 1 62 764 "/" "0" "sonafam2" "g_Hahn__.wav" "Hahn____.bmp" "w_______.bmp" "000" 1 14 1 14 0 0 0 1 8 1 NA NA NA NA NA NA NA NA NA NA NA NA
"59" 1 63 750 "/" "0" "sonafam2" "g_Staubs.wav" "Staubs__.bmp" "w_______.bmp" "000" 1 29 2 29 0 0 0 3 13 1 NA NA NA NA NA NA NA NA NA NA NA NA
"60" 1 64 773 "/" "0" "sonafam2" "g_Kuh___.wav" "Kuh_____.bmp" "w_______.bmp" "000" 1 20 1 20 0 0 0 1 9 1 NA NA NA NA NA NA NA NA NA NA NA NA
"61" 1 65 781 "/" "0" "sonafam2" "g_Zug___.wav" "Zug_____.bmp" "w_______.bmp" "000" 1 32 1 32 0 0 0 2 15 1 NA NA NA NA NA NA NA NA NA NA NA NA
"62" 1 66 643 "/" "0" "sonafam2" "g_Schwei.wav" "Schwei__.bmp" "w_______.bmp" "000" 1 28 2 28 0 0 0 1 13 1 NA NA NA NA NA NA NA NA NA NA NA NA
"63" 1 67 681 "/" "0" "sonafam2" "g_Dudels.wav" "Dudels__.bmp" "w_______.bmp" "000" 1 5 2 5 0 0 0 5 4 1 NA NA NA NA NA NA NA NA NA NA NA NA
"64" 1 68 647 "/" "0" "sonafam2" "g_Affe__.wav" "Affe____.bmp" "w_______.bmp" "000" 1 1 2 1 0 0 0 1 1 1 NA NA NA NA NA NA NA NA NA NA NA NA
"65" 1 69 1293 "/" "0" "sonafam2" "g_Floete.wav" "Floete__.bmp" "w_______.bmp" "000" 1 10 2 10 0 0 0 5 6 1 NA NA NA NA NA NA NA NA NA NA NA NA
"66" 1 70 699 "/" "0" "sonafam2" "g_Katze_.wav" "Katze___.bmp" "w_______.bmp" "000" 1 18 1 18 0 0 0 1 9 1 NA NA NA NA NA NA NA NA NA NA NA NA
"67" 1 71 658 "/" "0" "sonafam2" "g_Hubsch.wav" "Hubsch__.bmp" "w_______.bmp" "000" 1 96 9 96 0 0 0 2 8 1 NA NA NA NA NA NA NA NA NA NA NA NA
"68" 1 72 753 "/" "0" "sonafam2" "g_Geige_.wav" "Geige___.bmp" "w_______.bmp" "000" 1 11 2 11 0 0 0 5 7 1 NA NA NA NA NA NA NA NA NA NA NA NA
"69" 1 73 847 "/" "0" "sonafam2" "g_Schiff.wav" "Schiff__.bmp" "w_______.bmp" "000" 1 27 2 27 0 0 0 2 13 1 NA NA NA NA NA NA NA NA NA NA NA NA
"70" 1 74 689 "/" "0" "sonafam2" "g_Harfe_.wav" "Harfe___.bmp" "w_______.bmp" "000" 1 16 1 16 0 0 0 5 8 1 NA NA NA NA NA NA NA NA NA NA NA NA
"71" 1 75 821 "/" "0" "sonafam2" "g_Klinge.wav" "Klinge__.bmp" "w_______.bmp" "000" 1 19 2 19 0 0 0 6 9 1 NA NA NA NA NA NA NA NA NA NA NA NA
"72" 1 76 715 "/" "0" "sonafam2" "g_Besen_.wav" "Besen___.bmp" "w_______.bmp" "000" 1 3 1 3 0 0 0 3 3 1 NA NA NA NA NA NA NA NA NA NA NA NA
"73" 1 77 649 "/" "0" "sonafam2" "g_Glocke.wav" "Glocke__.bmp" "w_______.bmp" "000" 1 13 1 13 0 0 0 6 7 1 NA NA NA NA NA NA NA NA NA NA NA NA
"74" 1 78 664 "/" "0" "sonafam2" "g_Frosch.wav" "Frosch__.bmp" "w_______.bmp" "000" 1 90 9 90 0 0 0 1 6 1 NA NA NA NA NA NA NA NA NA NA NA NA
"75" 1 79 622 "/" "0" "sonafam2" "g_Schere.wav" "Schere__.bmp" "w_______.bmp" "000" 1 26 1 26 0 0 0 4 13 1 NA NA NA NA NA NA NA NA NA NA NA NA
"76" 1 80 3000 "-" "1" "sonafam2" "g_Grille.wav" "Grille__.bmp" "w_______.bmp" "000" 1 91 9 91 0 0 0 1 7 1 NA NA NA NA NA NA NA NA NA NA NA NA
"77" 1 81 822 "/" "1" "sonafam2" "g_Bohrer.wav" "Bohrer__.bmp" "w_______.bmp" "000" 1 4 2 4 0 0 0 4 3 1 NA NA NA NA NA NA NA NA NA NA NA NA
"78" 1 82 868 "/" "0" "sonafam2" "g_Kanone.wav" "Kanone__.bmp" "w_______.bmp" "000" 1 92 9 92 0 0 0 7 9 1 NA NA NA NA NA NA NA NA NA NA NA NA
"79" 1 83 613 "/" "0" "sonafam2" "g_Hammer.wav" "Hammer__.bmp" "w_______.bmp" "000" 1 15 1 15 0 0 0 4 8 1 NA NA NA NA NA NA NA NA NA NA NA NA
"80" 1 84 690 "/" "0" "sonafam2" "g_Pferd_.wav" "Pferd___.bmp" "w_______.bmp" "000" 1 23 1 23 0 0 0 1 6 1 NA NA NA NA NA NA NA NA NA NA NA NA
"81" 1 87 584 "<" "+" "sonaPRP" "Silence_.wav" "blank___.bmp" "links___.bmp" "<" 672 0 0 99 9 99 0 0 0 0 0 1 NA NA NA NA NA NA NA NA NA NA
"82" 1 87 808 "/" "0" "sonaPRP" "Silence_.wav" "blank___.bmp" "links___.bmp" "<" 672 0 0 99 9 99 0 0 0 0 0 1 NA NA NA NA NA NA NA NA NA NA
"83" 1 88 889 "<" "+" "sonaPRP" "Silence_.wav" "blank___.bmp" "links___.bmp" "<" 312 0 0 99 9 99 0 0 0 0 0 1 NA NA NA NA NA NA NA NA NA NA
"84" 1 88 3000 "-" "0" "sonaPRP" "Silence_.wav" "blank___.bmp" "links___.bmp" "<" 312 0 0 99 9 99 0 0 0 0 0 1 NA NA NA NA NA NA NA NA NA NA
"85" 1 89 389 "<" "-" "sonaPRP" "Silence_.wav" "blank___.bmp" "rechts__.bmp" ">" 312 0 0 99 9 99 0 0 0 0 0 1 NA NA NA NA NA NA NA NA NA NA
"86" 1 89 3000 "-" "0" "sonaPRP" "Silence_.wav" "blank___.bmp" "rechts__.bmp" ">" 312 0 0 99 9 99 0 0 0 0 0 1 NA NA NA NA NA NA NA NA NA NA
"87" 1 90 492 ">" "+" "sonaPRP" "Silence_.wav" "blank___.bmp" "rechts__.bmp" ">" 672 0 0 99 9 99 0 0 0 0 0 1 NA NA NA NA NA NA NA NA NA NA
"88" 1 90 703 "/" "0" "sonaPRP" "Silence_.wav" "blank___.bmp" "rechts__.bmp" ">" 672 0 0 99 9 99 0 0 0 0 0 1 NA NA NA NA NA NA NA NA NA NA
"89" 1 91 455 ">" "+" "sonaPRP" "Silence_.wav" "blank___.bmp" "rechts__.bmp" ">" 312 0 0 99 9 99 0 0 0 0 0 1 NA NA NA NA NA NA NA NA NA NA
"90" 1 91 3000 "-" "0" "sonaPRP" "Silence_.wav" "blank___.bmp" "rechts__.bmp" ">" 312 0 0 99 9 99 0 0 0 0 0 1 NA NA NA NA NA NA NA NA NA NA
"91" 1 92 555 "<" "+" "sonaPRP" "Silence_.wav" "blank___.bmp" "links___.bmp" "<" 312 0 0 99 9 99 0 0 0 0 0 1 NA NA NA NA NA NA NA NA NA NA
"92" 1 92 751 "/" "0" "sonaPRP" "Silence_.wav" "blank___.bmp" "links___.bmp" "<" 312 0 0 99 9 99 0 0 0 0 0 1 NA NA NA NA NA NA NA NA NA NA
"93" 1 93 402 ">" "+" "sonaPRP" "Silence_.wav" "blank___.bmp" "rechts__.bmp" ">" 312 0 0 99 9 99 0 0 0 0 0 1 NA NA NA NA NA NA NA NA NA NA
"94" 1 93 572 "/" "0" "sonaPRP" "Silence_.wav" "blank___.bmp" "rechts__.bmp" ">" 312 0 0 99 9 99 0 0 0 0 0 1 NA NA NA NA NA NA NA NA NA NA
"95" 1 94 631 ">" "+" "sonaPRP" "Silence_.wav" "blank___.bmp" "rechts__.bmp" ">" 672 0 0 99 9 99 0 0 0 0 0 1 NA NA NA NA NA NA NA NA NA NA
"96" 1 94 3000 "-" "0" "sonaPRP" "Silence_.wav" "blank___.bmp" "rechts__.bmp" ">" 672 0 0 99 9 99 0 0 0 0 0 1 NA NA NA NA NA NA NA NA NA NA
"97" 1 95 368 "<" "+" "sonaPRP" "Silence_.wav" "blank___.bmp" "links___.bmp" "<" 312 0 0 99 9 99 0 0 0 0 0 1 NA NA NA NA NA NA NA NA NA NA
"98" 1 95 3000 "-" "0" "sonaPRP" "Silence_.wav" "blank___.bmp" "links___.bmp" "<" 312 0 0 99 9 99 0 0 0 0 0 1 NA NA NA NA NA NA NA NA NA NA
"99" 1 96 336 ">" "-" "sonaPRP" "Silence_.wav" "blank___.bmp" "links___.bmp" "<" 672 0 0 99 9 99 0 0 0 0 0 1 NA NA NA NA NA NA NA NA NA NA
"100" 1 96 3000 "-" "0" "sonaPRP" "Silence_.wav" "blank___.bmp" "links___.bmp" "<" 672 0 0 99 9 99 0 0 0 0 0 1 NA NA NA NA NA NA NA NA NA NA
"101" 1 97 491 ">" "+" "sonaPRP" "Silence_.wav" "blank___.bmp" "rechts__.bmp" ">" 672 0 0 99 9 99 0 0 0 0 0 1 NA NA NA NA NA NA NA NA NA NA
"102" 1 97 3000 "-" "0" "sonaPRP" "Silence_.wav" "blank___.bmp" "rechts__.bmp" ">" 672 0 0 99 9 99 0 0 0 0 0 1 NA NA NA NA NA NA NA NA NA NA
"103" 1 98 573 "<" "+" "sonaPRP" "Silence_.wav" "blank___.bmp" "links___.bmp" "<" 672 0 0 99 9 99 0 0 0 0 0 1 NA NA NA NA NA NA NA NA NA NA
"104" 1 98 785 "/" "0" "sonaPRP" "Silence_.wav" "blank___.bmp" "links___.bmp" "<" 672 0 0 99 9 99 0 0 0 0 0 1 NA NA NA NA NA NA NA NA NA NA
"105" 1 101 1811 "/" "0" "sonaPRP" "g_Pfeife.wav" "Hubsch__.bmp" "blank___.bmp" "-" 0 0 6 93 9 96 0 0 0 6 6 1 NA NA NA NA NA NA NA NA NA NA
"106" 1 102 761 "/" "0" "sonaPRP" "g_Toilet.wav" "Toilet__.bmp" "blank___.bmp" "-" 0 0 1 95 9 95 0 0 0 8 14 1 NA NA NA NA NA NA NA NA NA NA
"107" 1 103 1690 "/" "0" "sonaPRP" "g_Grille.wav" "Kanone__.bmp" "blank___.bmp" "-" 0 0 6 91 9 92 0 0 0 1 7 1 NA NA NA NA NA NA NA NA NA NA
"108" 1 104 928 "/" "0" "sonaPRP" "g_Frosch.wav" "Hubsch__.bmp" "blank___.bmp" "-" 0 0 3 90 9 96 0 0 0 1 6 1 NA NA NA NA NA NA NA NA NA NA
"109" 1 105 819 "/" "0" "sonaPRP" "g_Telefo.wav" "Telefo__.bmp" "blank___.bmp" "-" 0 0 1 97 9 97 0 0 0 6 14 1 NA NA NA NA NA NA NA NA NA NA
"110" 1 106 980 "/" "0" "sonaPRP" "g_Kanone.wav" "Frosch__.bmp" "blank___.bmp" "-" 0 0 5 92 9 90 0 0 0 7 9 1 NA NA NA NA NA NA NA NA NA NA
"111" 1 107 967 "/" "0" "sonaPRP" "g_Toilet.wav" "Grille__.bmp" "blank___.bmp" "-" 0 0 3 95 9 91 0 0 0 8 14 1 NA NA NA NA NA NA NA NA NA NA
"112" 1 108 1070 "/" "0" "sonaPRP" "g_Pfeife.wav" "Pistol__.bmp" "blank___.bmp" "-" 0 0 3 93 9 94 0 0 0 6 6 1 NA NA NA NA NA NA NA NA NA NA
"113" 1 109 788 "/" "0" "sonaPRP" "g_Telefo.wav" "Telefo__.bmp" "blank___.bmp" "-" 0 0 1 97 9 97 0 0 0 6 14 1 NA NA NA NA NA NA NA NA NA NA
"114" 1 110 930 "/" "0" "sonaPRP" "g_Grille.wav" "Pistol__.bmp" "blank___.bmp" "-" 0 0 5 91 9 94 0 0 0 1 7 1 NA NA NA NA NA NA NA NA NA NA
"115" 1 111 933 "/" "0" "sonaPRP" "g_Frosch.wav" "Telefo__.bmp" "blank___.bmp" "-" 0 0 6 90 9 97 0 0 0 1 6 1 NA NA NA NA NA NA NA NA NA NA
"116" 1 112 1000 "/" "0" "sonaPRP" "g_Hubsch.wav" "Grille__.bmp" "blank___.bmp" "-" 0 0 5 96 9 91 0 0 0 2 8 1 NA NA NA NA NA NA NA NA NA NA
"117" 1 115 834 ">" "+" "sonaPRP" "g_Toilet.wav" "Grille__.bmp" "rechts__.bmp" ">" 672 0 3 95 9 91 0 0 0 8 14 1 NA NA NA NA NA NA NA NA NA NA
"118" 1 115 1775 "/" "0" "sonaPRP" "g_Toilet.wav" "Grille__.bmp" "rechts__.bmp" ">" 672 0 3 95 9 91 0 0 0 8 14 1 NA NA NA NA NA NA NA NA NA NA
"119" 1 116 599 "<" "+" "sonaPRP" "g_Hubsch.wav" "Pfeife__.bmp" "links___.bmp" "<" 672 0 3 96 9 93 0 0 0 2 8 1 NA NA NA NA NA NA NA NA NA NA
"120" 1 116 1243 "/" "0" "sonaPRP" "g_Hubsch.wav" "Pfeife__.bmp" "links___.bmp" "<" 672 0 3 96 9 93 0 0 0 2 8 1 NA NA NA NA NA NA NA NA NA NA
"121" 1 117 464 "<" "+" "sonaPRP" "g_Grille.wav" "Grille__.bmp" "links___.bmp" "<" 312 500 1 91 9 91 0 0 0 1 7 1 NA NA NA NA NA NA NA NA NA NA
"122" 1 117 1157 "/" "0" "sonaPRP" "g_Grille.wav" "Grille__.bmp" "links___.bmp" "<" 312 500 1 91 9 91 0 0 0 1 7 1 NA NA NA NA NA NA NA NA NA NA
"123" 1 118 605 "<" "+" "sonaPRP" "g_Telefo.wav" "Frosch__.bmp" "links___.bmp" "<" 672 0 4 97 9 90 0 0 0 6 14 1 NA NA NA NA NA NA NA NA NA NA
"124" 1 118 1216 "/" "0" "sonaPRP" "g_Telefo.wav" "Frosch__.bmp" "links___.bmp" "<" 672 0 4 97 9 90 0 0 0 6 14 1 NA NA NA NA NA NA NA NA NA NA
"125" 1 119 489 ">" "+" "sonaPRP" "g_Grille.wav" "Pistol__.bmp" "rechts__.bmp" ">" 312 500 5 91 9 94 0 0 0 1 7 1 NA NA NA NA NA NA NA NA NA NA
"126" 1 119 1028 "/" "0" "sonaPRP" "g_Grille.wav" "Pistol__.bmp" "rechts__.bmp" ">" 312 500 5 91 9 94 0 0 0 1 7 1 NA NA NA NA NA NA NA NA NA NA
"127" 1 120 508 ">" "+" "sonaPRP" "g_Pfeife.wav" "Pfeife__.bmp" "rechts__.bmp" ">" 312 500 1 93 9 93 0 0 0 6 6 1 NA NA NA NA NA NA NA NA NA NA
"128" 1 120 892 "/" "0" "sonaPRP" "g_Pfeife.wav" "Pfeife__.bmp" "rechts__.bmp" ">" 312 500 1 93 9 93 0 0 0 6 6 1 NA NA NA NA NA NA NA NA NA NA
"129" 1 121 540 "<" "+" "sonaPRP" "g_Kanone.wav" "Grille__.bmp" "links___.bmp" "<" 312 500 4 92 9 91 0 0 0 7 9 1 NA NA NA NA NA NA NA NA NA NA
"130" 1 121 991 "/" "0" "sonaPRP" "g_Kanone.wav" "Grille__.bmp" "links___.bmp" "<" 312 500 4 92 9 91 0 0 0 7 9 1 NA NA NA NA NA NA NA NA NA NA
"131" 1 122 609 ">" "+" "sonaPRP" "g_Hubsch.wav" "Hubsch__.bmp" "rechts__.bmp" ">" 672 0 1 96 9 96 0 0 0 2 8 1 NA NA NA NA NA NA NA NA NA NA
"132" 1 122 1223 "/" "0" "sonaPRP" "g_Hubsch.wav" "Hubsch__.bmp" "rechts__.bmp" ">" 672 0 1 96 9 96 0 0 0 2 8 1 NA NA NA NA NA NA NA NA NA NA
"133" 1 123 568 "<" "+" "sonaPRP" "g_Pistol.wav" "Telefo__.bmp" "links___.bmp" "<" 672 0 5 94 9 97 0 0 0 7 16 1 NA NA NA NA NA NA NA NA NA NA
"134" 1 123 1265 "/" "0" "sonaPRP" "g_Pistol.wav" "Telefo__.bmp" "links___.bmp" "<" 672 0 5 94 9 97 0 0 0 7 16 1 NA NA NA NA NA NA NA NA NA NA
"135" 1 124 550 "<" "+" "sonaPRP" "g_Toilet.wav" "Kanone__.bmp" "links___.bmp" "<" 312 500 5 95 9 92 0 0 0 8 14 1 NA NA NA NA NA NA NA NA NA NA
"136" 1 124 714 "/" "0" "sonaPRP" "g_Toilet.wav" "Kanone__.bmp" "links___.bmp" "<" 312 500 5 95 9 92 0 0 0 8 14 1 NA NA NA NA NA NA NA NA NA NA
"137" 1 125 523 ">" "+" "sonaPRP" "g_Pfeife.wav" "Pistol__.bmp" "rechts__.bmp" ">" 312 500 3 93 9 94 0 0 0 6 6 1 NA NA NA NA NA NA NA NA NA NA
"138" 1 125 1091 "/" "0" "sonaPRP" "g_Pfeife.wav" "Pistol__.bmp" "rechts__.bmp" ">" 312 500 3 93 9 94 0 0 0 6 6 1 NA NA NA NA NA NA NA NA NA NA
"139" 1 126 657 ">" "+" "sonaPRP" "g_Frosch.wav" "Telefo__.bmp" "rechts__.bmp" ">" 672 0 4 90 9 97 0 0 0 1 6 1 NA NA NA NA NA NA NA NA NA NA
"140" 1 126 1235 "/" "0" "sonaPRP" "g_Frosch.wav" "Telefo__.bmp" "rechts__.bmp" ">" 672 0 4 90 9 97 0 0 0 1 6 1 NA NA NA NA NA NA NA NA NA NA
"141" 1 129 567 ">" "+" "sonaPRP" "g_Grille.wav" "Pistol__.bmp" "rechts__.bmp" ">" 312 0 5 91 9 94 0 0 0 0 1 7 0 0 0 0 450 452 454 456 458 1
"142" 1 129 1234 "/" "0" "sonaPRP" "g_Grille.wav" "Pistol__.bmp" "rechts__.bmp" ">" 312 0 5 91 9 94 0 0 0 0 1 7 0 0 0 0 450 452 454 456 458 1
"143" 1 130 680 "<" "+" "sonaPRP" "g_Hubsch.wav" "Toilet__.bmp" "links___.bmp" "<" 672 500 6 96 9 95 0 0 0 0 2 8 0 0 0 0 451 453 455 457 459 1
"144" 1 130 1109 "/" "0" "sonaPRP" "g_Hubsch.wav" "Toilet__.bmp" "links___.bmp" "<" 672 500 6 96 9 95 0 0 0 0 2 8 0 0 0 0 451 453 455 457 459 1
"145" 1 131 425 ">" "+" "sonaPRP" "g_Geige_.wav" "Orgel___.bmp" "rechts__.bmp" ">" 312 500 2 11 2 22 11 1 1 1 5 7 1 3 4 2 51 11 216 22 386 1
"146" 1 131 1166 "/" "0" "sonaPRP" "g_Geige_.wav" "Orgel___.bmp" "rechts__.bmp" ">" 312 500 2 11 2 22 11 1 1 1 5 7 1 3 4 2 51 11 216 22 386 1
"147" 1 132 653 "<" "+" "sonaPRP" "g_Hahn__.wav" "Ente____.bmp" "links___.bmp" "<" 672 0 2 14 1 7 6 1 1 1 1 8 1 3 4 2 7 14 222 303 397 1
"148" 1 132 1211 "/" "0" "sonaPRP" "g_Hahn__.wav" "Ente____.bmp" "links___.bmp" "<" 672 0 2 14 1 7 6 1 1 1 1 8 1 3 4 2 7 14 222 303 397 1
"149" 1 133 526 ">" "+" "sonaPRP" "g_Elefan.wav" "Schwei__.bmp" "rechts__.bmp" ">" 312 0 2 6 1 28 2 1 1 1 1 5 1 3 4 2 41 6 206 28 368 1
"150" 1 133 1073 "/" "0" "sonaPRP" "g_Elefan.wav" "Schwei__.bmp" "rechts__.bmp" ">" 312 0 2 6 1 28 2 1 1 1 1 5 1 3 4 2 41 6 206 28 368 1
"151" 1 134 706 ">" "+" "sonaPRP" "g_Harfe_.wav" "Besen___.bmp" "rechts__.bmp" ">" 672 0 4 16 1 3 8 1 1 1 5 8 1 3 4 2 36 3 198 16 359 1
"152" 1 134 1195 "/" "1" "sonaPRP" "g_Harfe_.wav" "Besen___.bmp" "rechts__.bmp" ">" 672 0 4 16 1 3 8 1 1 1 5 8 1 3 4 2 36 3 198 16 359 1
"153" 1 135 648 ">" "+" "sonaPRP" "g_Loewe_.wav" "Schiff__.bmp" "rechts__.bmp" ">" 312 500 4 21 2 27 9 1 1 1 1 10 1 3 4 2 95 21 251 332 27 1
"154" 1 135 956 "/" "0" "sonaPRP" "g_Loewe_.wav" "Schiff__.bmp" "rechts__.bmp" ">" 312 500 4 21 2 27 9 1 1 1 1 10 1 3 4 2 95 21 251 332 27 1
"155" 1 136 678 "<" "+" "sonaPRP" "g_Orgel_.wav" "Hund____.bmp" "links___.bmp" "<" 672 0 3 22 1 17 11 1 1 1 5 11 1 3 4 2 17 151 229 22 408 1
"156" 1 136 1175 "/" "0" "sonaPRP" "g_Orgel_.wav" "Hund____.bmp" "links___.bmp" "<" 672 0 3 22 1 17 11 1 1 1 5 11 1 3 4 2 17 151 229 22 408 1
"157" 1 137 626 ">" "+" "sonaPRP" "g_Schere.wav" "Saege___.bmp" "rechts__.bmp" ">" 672 0 2 26 1 24 14 1 1 1 4 13 1 3 4 2 90 174 247 24 26 1
"158" 1 137 1200 "/" "0" "sonaPRP" "g_Schere.wav" "Saege___.bmp" "rechts__.bmp" ">" 672 0 2 26 1 24 14 1 1 1 4 13 1 3 4 2 90 174 247 24 26 1
"159" 1 138 572 "<" "+" "sonaPRP" "g_Floete.wav" "Besen___.bmp" "links___.bmp" "<" 312 500 3 10 2 3 8 1 1 1 5 6 1 3 4 2 35 3 10 271 358 1
"160" 1 138 1500 "/" "0" "sonaPRP" "g_Floete.wav" "Besen___.bmp" "links___.bmp" "<" 312 500 3 10 2 3 8 1 1 1 5 6 1 3 4 2 35 3 10 271 358 1
"161" 1 139 722 "<" "+" "sonaPRP" "g_Schiff.wav" "Harfe___.bmp" "links___.bmp" "<" 672 500 3 27 2 16 16 1 1 1 2 13 1 3 4 2 63 148 226 16 27 1
"162" 1 139 1302 "/" "0" "sonaPRP" "g_Schiff.wav" "Harfe___.bmp" "links___.bmp" "<" 672 500 3 27 2 16 16 1 1 1 2 13 1 3 4 2 63 148 226 16 27 1
"163" 1 140 648 "<" "+" "sonaPRP" "g_Tromme.wav" "Elefan__.bmp" "links___.bmp" "<" 312 500 3 30 2 6 4 1 1 1 5 14 1 3 4 2 42 6 207 280 30 1
"164" 1 140 880 "/" "0" "sonaPRP" "g_Tromme.wav" "Elefan__.bmp" "links___.bmp" "<" 312 500 3 30 2 6 4 1 1 1 5 14 1 3 4 2 42 6 207 280 30 1
"165" 1 141 730 ">" "+" "sonaPRP" "g_Glocke.wav" "Glocke__.bmp" "rechts__.bmp" ">" 672 0 1 13 1 13 5 1 1 1 6 7 1 3 4 2 13 140 219 298 392 1
"166" 1 141 1310 "/" "0" "sonaPRP" "g_Glocke.wav" "Glocke__.bmp" "rechts__.bmp" ">" 672 0 1 13 1 13 5 1 1 1 6 7 1 3 4 2 13 140 219 298 392 1
"167" 1 142 552 "<" "+" "sonaPRP" "g_Dudels.wav" "Trompe__.bmp" "links___.bmp" "<" 672 500 2 5 2 31 15 1 1 1 5 4 1 3 4 2 38 5 203 276 31 1
"168" 1 142 1020 "/" "0" "sonaPRP" "g_Dudels.wav" "Trompe__.bmp" "links___.bmp" "<" 672 500 2 5 2 31 15 1 1 1 5 4 1 3 4 2 38 5 203 276 31 1
"169" 1 143 653 "<" "+" "sonaPRP" "g_Schwei.wav" "Schwei__.bmp" "links___.bmp" "<" 312 500 1 28 2 28 2 1 1 1 1 13 1 3 4 2 96 179 252 28 439 1
"170" 1 143 825 "/" "0" "sonaPRP" "g_Schwei.wav" "Schwei__.bmp" "links___.bmp" "<" 312 500 1 28 2 28 2 1 1 1 1 13 1 3 4 2 96 179 252 28 439 1
"171" 1 144 830 "<" "+" "sonaPRP" "g_Esel__.wav" "Geige___.bmp" "links___.bmp" "<" 672 500 4 8 2 11 13 1 1 1 1 5 1 3 4 2 8 11 218 294 388 1
"172" 1 144 1038 "/" "0" "sonaPRP" "g_Esel__.wav" "Geige___.bmp" "links___.bmp" "<" 672 500 4 8 2 11 13 1 1 1 1 5 1 3 4 2 8 11 218 294 388 1
"173" 1 145 553 ">" "+" "sonaPRP" "g_Gitarr.wav" "Elefan__.bmp" "rechts__.bmp" ">" 312 0 4 12 1 6 4 1 1 1 5 7 1 3 4 2 43 6 12 281 369 1
"174" 1 145 1762 "/" "0" "sonaPRP" "g_Gitarr.wav" "Elefan__.bmp" "rechts__.bmp" ">" 312 0 4 12 1 6 4 1 1 1 5 7 1 3 4 2 43 6 12 281 369 1
"175" 1 146 718 "<" "+" "sonaPRP" "g_Katze_.wav" "Katze___.bmp" "links___.bmp" "<" 672 0 1 18 1 18 9 1 1 1 1 9 1 3 4 2 65 152 18 311 410 1
"176" 1 146 1176 "/" "0" "sonaPRP" "g_Katze_.wav" "Katze___.bmp" "links___.bmp" "<" 672 0 1 18 1 18 9 1 1 1 1 9 1 3 4 2 65 152 18 311 410 1
"177" 1 147 806 "<" "+" "sonaPRP" "g_Saege_.wav" "Saege___.bmp" "links___.bmp" "<" 672 500 1 24 2 24 14 1 1 1 4 12 1 3 4 2 83 165 240 24 433 1
"178" 1 147 1106 "/" "0" "sonaPRP" "g_Saege_.wav" "Saege___.bmp" "links___.bmp" "<" 672 500 1 24 2 24 14 1 1 1 4 12 1 3 4 2 83 165 240 24 433 1
"179" 1 148 543 "<" "+" "sonaPRP" "g_Hund__.wav" "Zug_____.bmp" "links___.bmp" "<" 312 500 3 17 2 32 12 1 1 1 1 8 1 3 4 2 17 32 262 347 447 1
"180" 1 148 796 "/" "0" "sonaPRP" "g_Hund__.wav" "Zug_____.bmp" "links___.bmp" "<" 312 500 3 17 2 32 12 1 1 1 1 8 1 3 4 2 17 32 262 347 447 1
"181" 1 149 616 ">" "+" "sonaPRP" "g_Bohrer.wav" "Hammer__.bmp" "rechts__.bmp" ">" 312 500 2 4 2 15 7 1 1 1 4 3 1 3 4 2 4 121 15 273 361 1
"182" 1 149 1527 "/" "0" "sonaPRP" "g_Bohrer.wav" "Hammer__.bmp" "rechts__.bmp" ">" 312 500 2 4 2 15 7 1 1 1 4 3 1 3 4 2 4 121 15 273 361 1
"183" 1 150 640 "<" "+" "sonaPRP" "g_Fahrra.wav" "Loewe___.bmp" "links___.bmp" "<" 312 0 3 9 1 21 3 1 1 1 2 6 1 3 4 2 76 21 9 320 424 1
"184" 1 150 1225 "/" "0" "sonaPRP" "g_Fahrra.wav" "Loewe___.bmp" "links___.bmp" "<" 312 0 3 9 1 21 3 1 1 1 2 6 1 3 4 2 76 21 9 320 424 1
"185" 1 151 652 ">" "+" "sonaPRP" "g_Staubs.wav" "Auto____.bmp" "rechts__.bmp" ">" 672 500 4 29 2 2 1 1 1 1 3 13 1 3 4 2 2 119 29 268 355 1
"186" 1 151 993 "/" "0" "sonaPRP" "g_Staubs.wav" "Auto____.bmp" "rechts__.bmp" ">" 672 500 4 29 2 2 1 1 1 1 3 13 1 3 4 2 2 119 29 268 355 1
"187" 1 152 520 "<" "+" "sonaPRP" "g_Ente__.wav" "Ente____.bmp" "links___.bmp" "<" 312 500 1 7 2 7 6 1 1 1 1 5 1 3 4 2 7 123 208 282 370 1
"188" 1 152 802 "/" "0" "sonaPRP" "g_Ente__.wav" "Ente____.bmp" "links___.bmp" "<" 312 500 1 7 2 7 6 1 1 1 1 5 1 3 4 2 7 123 208 282 370 1
"189" 1 153 709 ">" "+" "sonaPRP" "g_Zug___.wav" "Harfe___.bmp" "rechts__.bmp" ">" 672 0 4 32 1 16 16 1 1 1 2 15 1 3 4 2 64 32 227 16 405 1
"190" 1 153 1535 "/" "0" "sonaPRP" "g_Zug___.wav" "Harfe___.bmp" "rechts__.bmp" ">" 672 0 4 32 1 16 16 1 1 1 2 15 1 3 4 2 64 32 227 16 405 1
"191" 1 154 664 ">" "+" "sonaPRP" "g_Schaf_.wav" "Schaf___.bmp" "rechts__.bmp" ">" 312 0 1 25 1 25 13 1 1 1 1 13 1 3 4 2 87 169 243 25 435 1
"192" 1 154 990 "/" "0" "sonaPRP" "g_Schaf_.wav" "Schaf___.bmp" "rechts__.bmp" ">" 312 0 1 25 1 25 13 1 1 1 1 13 1 3 4 2 87 169 243 25 435 1
"193" 1 155 727 ">" "+" "sonaPRP" "g_Trompe.wav" "Staubs__.bmp" "rechts__.bmp" ">" 672 0 3 31 1 29 15 1 1 1 5 14 1 3 4 2 101 183 29 335 31 1
"194" 1 155 2055 "/" "0" "sonaPRP" "g_Trompe.wav" "Staubs__.bmp" "rechts__.bmp" ">" 672 0 3 31 1 29 15 1 1 1 5 14 1 3 4 2 101 183 29 335 31 1
"195" 1 156 850 "<" "+" "sonaPRP" "g_Affe__.wav" "Affe____.bmp" "links___.bmp" "<" 672 500 1 1 2 1 10 1 1 1 1 1 1 3 4 2 1 113 191 263 349 1
"196" 1 156 1032 "/" "0" "sonaPRP" "g_Affe__.wav" "Affe____.bmp" "links___.bmp" "<" 672 500 1 1 2 1 10 1 1 1 1 1 1 3 4 2 1 113 191 263 349 1
"197" 1 157 659 ">" "+" "sonaPRP" "g_Besen_.wav" "Besen___.bmp" "rechts__.bmp" ">" 672 0 1 3 1 3 1 1 1 1 3 3 1 3 4 2 33 3 197 269 356 1
"198" 1 157 1353 "/" "0" "sonaPRP" "g_Besen_.wav" "Besen___.bmp" "rechts__.bmp" ">" 672 0 1 3 1 3 1 1 1 1 3 3 1 3 4 2 33 3 197 269 356 1
"199" 1 158 853 ">" "+" "sonaPRP" "g_Pferd_.wav" "Zug_____.bmp" "rechts__.bmp" ">" 312 0 4 23 1 32 12 1 1 1 1 6 1 3 4 2 112 32 23 348 448 1
"200" 1 158 1432 "/" "0" "sonaPRP" "g_Pferd_.wav" "Zug_____.bmp" "rechts__.bmp" ">" 312 0 4 23 1 32 12 1 1 1 1 6 1 3 4 2 112 32 23 348 448 1
"201" 1 159 641 ">" "+" "sonaPRP" "g_Klinge.wav" "Schwei__.bmp" "rechts__.bmp" ">" 672 500 4 19 2 28 5 1 1 1 6 9 1 3 4 2 98 181 19 28 442 1
"202" 1 159 1054 "/" "0" "sonaPRP" "g_Klinge.wav" "Schwei__.bmp" "rechts__.bmp" ">" 672 500 4 19 2 28 5 1 1 1 6 9 1 3 4 2 98 181 19 28 442 1
"203" 1 160 505 "<" "+" "sonaPRP" "g_Auto__.wav" "Fahrra__.bmp" "links___.bmp" "<" 312 500 2 2 2 9 3 1 1 1 2 2 1 3 4 2 2 118 9 266 353 1
"204" 1 160 1077 "/" "1" "sonaPRP" "g_Auto__.wav" "Fahrra__.bmp" "links___.bmp" "<" 312 500 2 2 2 9 3 1 1 1 2 2 1 3 4 2 2 118 9 266 353 1
"205" 1 161 744 "<" "+" "sonaPRP" "g_Kuh___.wav" "Affe____.bmp" "links___.bmp" "<" 312 0 2 20 1 1 10 1 1 1 1 9 1 3 4 2 1 158 232 20 419 1
"206" 1 161 1343 "/" "0" "sonaPRP" "g_Kuh___.wav" "Affe____.bmp" "links___.bmp" "<" 312 0 2 20 1 1 10 1 1 1 1 9 1 3 4 2 1 158 232 20 419 1
"207" 1 162 686 ">" "+" "sonaPRP" "g_Hammer.wav" "Dudels__.bmp" "rechts__.bmp" ">" 312 0 3 15 1 5 7 1 1 1 4 8 1 3 4 2 39 5 15 277 365 1
"208" 1 162 1302 "/" "0" "sonaPRP" "g_Hammer.wav" "Dudels__.bmp" "rechts__.bmp" ">" 312 0 3 15 1 5 7 1 1 1 4 8 1 3 4 2 39 5 15 277 365 1
"209" 1 163 963 ">" "+" "sonaPRP" "g_Glocke.wav" "Klinge__.bmp" "rechts__.bmp" ">" 672 0 2 13 1 19 5 1 1 2 6 7 2 1 3 4 13 141 19 299 393 1
"210" 1 163 1950 "/" "0" "sonaPRP" "g_Glocke.wav" "Klinge__.bmp" "rechts__.bmp" ">" 672 0 2 13 1 19 5 1 1 2 6 7 2 1 3 4 13 141 19 299 393 1
"211" 1 164 709 ">" "+" "sonaPRP" "g_Saege_.wav" "Schere__.bmp" "rechts__.bmp" ">" 312 500 2 24 2 26 14 1 1 2 4 12 2 1 3 4 84 166 241 24 26 1
"212" 1 164 1343 "/" "0" "sonaPRP" "g_Saege_.wav" "Schere__.bmp" "rechts__.bmp" ">" 312 500 2 24 2 26 14 1 1 2 4 12 2 1 3 4 84 166 241 24 26 1
"213" 1 165 675 "<" "+" "sonaPRP" "g_Pferd_.wav" "Pferd___.bmp" "links___.bmp" "<" 672 0 1 23 1 23 12 1 1 2 1 6 2 1 3 4 80 162 23 322 430 1
"214" 1 165 1288 "/" "0" "sonaPRP" "g_Pferd_.wav" "Pferd___.bmp" "links___.bmp" "<" 672 0 1 23 1 23 12 1 1 2 1 6 2 1 3 4 80 162 23 322 430 1
"215" 1 166 756 ">" "+" "sonaPRP" "g_Hahn__.wav" "Klinge__.bmp" "rechts__.bmp" ">" 312 0 3 14 1 19 6 1 1 2 1 8 2 1 3 4 70 14 19 316 416 1
"216" 1 166 1307 "/" "0" "sonaPRP" "g_Hahn__.wav" "Klinge__.bmp" "rechts__.bmp" ">" 312 0 3 14 1 19 6 1 1 2 1 8 2 1 3 4 70 14 19 316 416 1
"217" 1 167 719 ">" "+" "sonaPRP" "g_Schiff.wav" "Esel____.bmp" "rechts__.bmp" ">" 672 500 4 27 2 8 16 1 1 2 2 13 2 1 3 4 8 128 214 287 27 1
"218" 1 167 1353 "/" "0" "sonaPRP" "g_Schiff.wav" "Esel____.bmp" "rechts__.bmp" ">" 672 500 4 27 2 8 16 1 1 2 2 13 2 1 3 4 8 128 214 287 27 1
"219" 1 168 653 "<" "+" "sonaPRP" "g_Kuh___.wav" "Floete__.bmp" "links___.bmp" "<" 672 0 3 20 1 10 10 1 1 2 1 9 2 1 3 4 49 134 10 20 383 1
"220" 1 168 1200 "/" "0" "sonaPRP" "g_Kuh___.wav" "Floete__.bmp" "links___.bmp" "<" 672 0 3 20 1 10 10 1 1 2 1 9 2 1 3 4 49 134 10 20 383 1
"221" 1 169 757 "<" "+" "sonaPRP" "g_Loewe_.wav" "Loewe___.bmp" "links___.bmp" "<" 312 500 1 21 2 21 9 1 1 2 1 10 2 1 3 4 74 21 234 318 422 1
"222" 1 169 886 "/" "0" "sonaPRP" "g_Loewe_.wav" "Loewe___.bmp" "links___.bmp" "<" 312 500 1 21 2 21 9 1 1 2 1 10 2 1 3 4 74 21 234 318 422 1
"223" 1 170 638 "<" "+" "sonaPRP" "g_Bohrer.wav" "Trompe__.bmp" "links___.bmp" "<" 672 500 3 4 2 31 7 1 1 2 4 3 2 1 3 4 4 189 259 343 31 1
"224" 1 170 1298 "/" "0" "sonaPRP" "g_Bohrer.wav" "Trompe__.bmp" "links___.bmp" "<" 672 500 3 4 2 31 7 1 1 2 4 3 2 1 3 4 4 189 259 343 31 1
"225" 1 171 606 ">" "+" "sonaPRP" "g_Staubs.wav" "Staubs__.bmp" "rechts__.bmp" ">" 312 500 1 29 2 29 1 1 1 2 3 13 2 1 3 4 99 182 29 333 443 1
"226" 1 171 815 "/" "0" "sonaPRP" "g_Staubs.wav" "Staubs__.bmp" "rechts__.bmp" ">" 312 500 1 29 2 29 1 1 1 2 3 13 2 1 3 4 99 182 29 333 443 1
"227" 1 172 728 "<" "+" "sonaPRP" "g_Gitarr.wav" "Gitarr__.bmp" "links___.bmp" "<" 312 0 1 12 1 12 4 1 1 2 5 7 2 1 3 4 53 136 12 295 389 1
"228" 1 172 1241 "/" "0" "sonaPRP" "g_Gitarr.wav" "Gitarr__.bmp" "links___.bmp" "<" 312 0 1 12 1 12 4 1 1 2 5 7 2 1 3 4 53 136 12 295 389 1
"229" 1 173 669 "<" "+" "sonaPRP" "g_Zug___.wav" "Zug_____.bmp" "links___.bmp" "<" 312 0 1 32 1 32 16 1 1 2 2 15 2 1 3 4 110 32 260 345 446 1
"230" 1 173 1361 "/" "0" "sonaPRP" "g_Zug___.wav" "Zug_____.bmp" "links___.bmp" "<" 312 0 1 32 1 32 16 1 1 2 2 15 2 1 3 4 110 32 260 345 446 1
"231" 1 174 663 ">" "+" "sonaPRP" "g_Besen_.wav" "Staubs__.bmp" "rechts__.bmp" ">" 672 0 2 3 1 29 1 1 1 2 3 3 2 1 3 4 34 3 29 270 357 1
"232" 1 174 1740 "/" "0" "sonaPRP" "g_Besen_.wav" "Staubs__.bmp" "rechts__.bmp" ">" 672 0 2 3 1 29 1 1 1 2 3 3 2 1 3 4 34 3 29 270 357 1
"233" 1 175 648 ">" "+" "sonaPRP" "g_Tromme.wav" "Saege___.bmp" "rechts__.bmp" ">" 312 500 4 30 2 24 4 1 1 2 5 14 2 1 3 4 86 168 242 24 30 1
"234" 1 175 914 "/" "0" "sonaPRP" "g_Tromme.wav" "Saege___.bmp" "rechts__.bmp" ">" 312 500 4 30 2 24 4 1 1 2 5 14 2 1 3 4 86 168 242 24 30 1
"235" 1 176 718 "<" "+" "sonaPRP" "g_Auto__.wav" "Schaf___.bmp" "links___.bmp" "<" 312 500 3 2 2 25 3 1 1 2 2 2 2 1 3 4 2 171 245 25 437 1
"236" 1 176 1114 "/" "0" "sonaPRP" "g_Auto__.wav" "Schaf___.bmp" "links___.bmp" "<" 312 500 3 2 2 25 3 1 1 2 2 2 2 1 3 4 2 171 245 25 437 1
"237" 1 177 629 ">" "+" "sonaPRP" "g_Orgel_.wav" "Katze___.bmp" "rechts__.bmp" ">" 672 0 4 22 1 18 11 1 1 2 5 11 2 1 3 4 68 153 18 22 413 1
"238" 1 177 1199 "/" "0" "sonaPRP" "g_Orgel_.wav" "Katze___.bmp" "rechts__.bmp" ">" 672 0 4 22 1 18 11 1 1 2 5 11 2 1 3 4 68 153 18 22 413 1
"239" 1 178 788 ">" "+" "sonaPRP" "g_Hammer.wav" "Trompe__.bmp" "rechts__.bmp" ">" 312 0 4 15 1 31 7 1 1 2 4 8 2 1 3 4 109 190 15 344 31 1
"240" 1 178 1292 "/" "0" "sonaPRP" "g_Hammer.wav" "Trompe__.bmp" "rechts__.bmp" ">" 312 0 4 15 1 31 7 1 1 2 4 8 2 1 3 4 109 190 15 344 31 1
"241" 1 179 662 "<" "+" "sonaPRP" "g_Affe__.wav" "Kuh_____.bmp" "links___.bmp" "<" 672 500 2 1 2 20 10 1 1 2 1 1 2 1 3 4 1 114 192 20 350 1
"242" 1 179 841 "/" "0" "sonaPRP" "g_Affe__.wav" "Kuh_____.bmp" "links___.bmp" "<" 672 500 2 1 2 20 10 1 1 2 1 1 2 1 3 4 1 114 192 20 350 1
"243" 1 180 688 "<" "+" "sonaPRP" "g_Esel__.wav" "Esel____.bmp" "links___.bmp" "<" 672 500 1 8 2 8 13 1 1 2 1 5 2 1 3 4 8 126 211 285 374 1
"244" 1 180 909 "/" "0" "sonaPRP" "g_Esel__.wav" "Esel____.bmp" "links___.bmp" "<" 672 500 1 8 2 8 13 1 1 2 1 5 2 1 3 4 8 126 211 285 374 1
"245" 1 181 580 "<" "+" "sonaPRP" "g_Klinge.wav" "Klinge__.bmp" "links___.bmp" "<" 312 500 1 19 2 19 5 1 1 2 6 9 2 1 3 4 69 154 19 314 414 1
"246" 1 181 834 "/" "0" "sonaPRP" "g_Klinge.wav" "Klinge__.bmp" "links___.bmp" "<" 312 500 1 19 2 19 5 1 1 2 6 9 2 1 3 4 69 154 19 314 414 1
"247" 1 182 569 ">" "+" "sonaPRP" "g_Trompe.wav" "Pferd___.bmp" "rechts__.bmp" ">" 312 0 4 31 1 23 15 1 1 2 5 14 2 1 3 4 82 164 23 325 31 1
"248" 1 182 1288 "/" "0" "sonaPRP" "g_Trompe.wav" "Pferd___.bmp" "rechts__.bmp" ">" 312 0 4 31 1 23 15 1 1 2 5 14 2 1 3 4 82 164 23 325 31 1
"249" 1 183 760 ">" "+" "sonaPRP" "g_Schaf_.wav" "Esel____.bmp" "rechts__.bmp" ">" 672 0 2 25 1 8 13 1 1 2 1 13 2 1 3 4 8 170 244 25 436 1
"250" 1 183 1631 "/" "0" "sonaPRP" "g_Schaf_.wav" "Esel____.bmp" "rechts__.bmp" ">" 672 0 2 25 1 8 13 1 1 2 1 13 2 1 3 4 8 170 244 25 436 1
"251" 1 184 767 ">" "+" "sonaPRP" "g_Elefan.wav" "Bohrer__.bmp" "rechts__.bmp" ">" 672 0 3 6 1 4 2 1 1 2 1 5 2 1 3 4 4 6 200 274 362 1
"252" 1 184 1382 "/" "0" "sonaPRP" "g_Elefan.wav" "Bohrer__.bmp" "rechts__.bmp" ">" 672 0 3 6 1 4 2 1 1 2 1 5 2 1 3 4 4 6 200 274 362 1
"253" 1 185 556 "<" "+" "sonaPRP" "g_Floete.wav" "Ente____.bmp" "links___.bmp" "<" 312 500 4 10 2 7 8 1 1 2 5 6 2 1 3 4 7 125 10 284 373 1
"254" 1 185 1035 "/" "0" "sonaPRP" "g_Floete.wav" "Ente____.bmp" "links___.bmp" "<" 312 500 4 10 2 7 8 1 1 2 5 6 2 1 3 4 7 125 10 284 373 1
"255" 1 186 605 ">" "+" "sonaPRP" "g_Katze_.wav" "Loewe___.bmp" "rechts__.bmp" ">" 672 0 2 18 1 21 9 1 1 2 1 9 2 1 3 4 66 21 18 312 411 1
"256" 1 186 1212 "/" "0" "sonaPRP" "g_Katze_.wav" "Loewe___.bmp" "rechts__.bmp" ">" 672 0 2 18 1 21 9 1 1 2 1 9 2 1 3 4 66 21 18 312 411 1
"257" 1 187 746 "<" "+" "sonaPRP" "g_Schere.wav" "Affe____.bmp" "links___.bmp" "<" 672 0 3 26 1 1 14 1 1 2 4 13 2 1 3 4 1 115 193 264 26 1
"258" 1 187 1246 "/" "0" "sonaPRP" "g_Schere.wav" "Affe____.bmp" "links___.bmp" "<" 672 0 3 26 1 1 14 1 1 2 4 13 2 1 3 4 1 115 193 264 26 1
"259" 1 188 816 ">" "+" "sonaPRP" "g_Hund__.wav" "Tromme__.bmp" "rechts__.bmp" ">" 672 500 4 17 2 30 12 1 1 2 1 8 2 1 3 4 17 187 256 340 30 1
"260" 1 188 957 "/" "0" "sonaPRP" "g_Hund__.wav" "Tromme__.bmp" "rechts__.bmp" ">" 672 500 4 17 2 30 12 1 1 2 1 8 2 1 3 4 17 187 256 340 30 1
"261" 1 189 482 "<" "+" "sonaPRP" "g_Schwei.wav" "Elefan__.bmp" "links___.bmp" "<" 312 500 2 28 2 6 2 1 1 2 1 13 2 1 3 4 97 6 253 28 440 1
"262" 1 189 985 "/" "0" "sonaPRP" "g_Schwei.wav" "Elefan__.bmp" "links___.bmp" "<" 312 500 2 28 2 6 2 1 1 2 1 13 2 1 3 4 97 6 253 28 440 1
"263" 1 190 689 "<" "+" "sonaPRP" "g_Dudels.wav" "Pferd___.bmp" "links___.bmp" "<" 312 500 3 5 2 23 15 1 1 2 5 4 2 1 3 4 81 5 23 324 432 1
"264" 1 190 1346 "/" "0" "sonaPRP" "g_Dudels.wav" "Pferd___.bmp" "links___.bmp" "<" 312 500 3 5 2 23 15 1 1 2 5 4 2 1 3 4 81 5 23 324 432 1
"265" 1 191 810 "<" "+" "sonaPRP" "g_Harfe_.wav" "Harfe___.bmp" "links___.bmp" "<" 672 0 1 16 1 16 8 1 1 2 5 8 2 1 3 4 61 147 225 16 403 1
"266" 1 191 1607 "/" "0" "sonaPRP" "g_Harfe_.wav" "Harfe___.bmp" "links___.bmp" "<" 672 0 1 16 1 16 8 1 1 2 5 8 2 1 3 4 61 147 225 16 403 1
"267" 1 192 602 ">" "+" "sonaPRP" "g_Fahrra.wav" "Schaf___.bmp" "rechts__.bmp" ">" 312 0 4 9 1 25 3 1 1 2 2 6 2 1 3 4 88 172 9 25 438 1
"268" 1 192 1496 "/" "0" "sonaPRP" "g_Fahrra.wav" "Schaf___.bmp" "rechts__.bmp" ">" 312 0 4 9 1 25 3 1 1 2 2 6 2 1 3 4 88 172 9 25 438 1
"269" 1 193 472 "<" "+" "sonaPRP" "g_Ente__.wav" "Hahn____.bmp" "links___.bmp" "<" 672 500 2 7 2 14 6 1 1 2 1 5 2 1 3 4 7 14 209 283 371 1
"270" 1 193 2140 "/" "0" "sonaPRP" "g_Ente__.wav" "Hahn____.bmp" "links___.bmp" "<" 672 500 2 7 2 14 6 1 1 2 1 5 2 1 3 4 7 14 209 283 371 1
"271" 1 194 546 ">" "+" "sonaPRP" "g_Geige_.wav" "Katze___.bmp" "rechts__.bmp" ">" 312 500 3 11 2 18 11 1 1 2 5 7 2 1 3 4 67 11 18 313 412 1
"272" 1 194 1398 "/" "0" "sonaPRP" "g_Geige_.wav" "Katze___.bmp" "rechts__.bmp" ">" 312 500 3 11 2 18 11 1 1 2 5 7 2 1 3 4 67 11 18 313 412 1
"273" 1 197 571 "<" "+" "sonaPRP" "g_Frosch.wav" "Hubsch__.bmp" "links___.bmp" "<" 312 500 5 90 9 96 0 0 0 0 1 6 0 0 0 0 460 462 464 466 468 1
"274" 1 197 934 "/" "0" "sonaPRP" "g_Frosch.wav" "Hubsch__.bmp" "links___.bmp" "<" 312 500 5 90 9 96 0 0 0 0 1 6 0 0 0 0 460 462 464 466 468 1
"275" 1 198 593 ">" "+" "sonaPRP" "g_Toilet.wav" "Pistol__.bmp" "rechts__.bmp" ">" 672 0 6 95 9 94 0 0 0 0 8 14 0 0 0 0 461 463 465 467 469 1
"276" 1 198 980 "/" "0" "sonaPRP" "g_Toilet.wav" "Pistol__.bmp" "rechts__.bmp" ">" 672 0 6 95 9 94 0 0 0 0 8 14 0 0 0 0 461 463 465 467 469 1
"277" 1 199 577 ">" "+" "sonaPRP" "g_Gitarr.wav" "Saege___.bmp" "rechts__.bmp" ">" 312 0 3 12 1 24 4 2 1 3 5 7 3 4 2 1 85 167 12 24 434 1
"278" 1 199 1639 "/" "1" "sonaPRP" "g_Gitarr.wav" "Saege___.bmp" "rechts__.bmp" ">" 312 0 3 12 1 24 4 2 1 3 5 7 3 4 2 1 85 167 12 24 434 1
"279" 1 200 807 "<" "+" "sonaPRP" "g_Schwei.wav" "Bohrer__.bmp" "links___.bmp" "<" 312 500 4 28 2 4 2 2 1 3 1 13 3 4 2 1 4 122 201 28 363 1
"280" 1 200 962 "/" "0" "sonaPRP" "g_Schwei.wav" "Bohrer__.bmp" "links___.bmp" "<" 312 500 4 28 2 4 2 2 1 3 1 13 3 4 2 1 4 122 201 28 363 1
"281" 1 201 596 ">" "+" "sonaPRP" "g_Hahn__.wav" "Hahn____.bmp" "rechts__.bmp" ">" 672 0 1 14 1 14 6 2 1 3 1 8 3 4 2 1 56 14 221 302 396 1
"282" 1 201 1287 "/" "0" "sonaPRP" "g_Hahn__.wav" "Hahn____.bmp" "rechts__.bmp" ">" 672 0 1 14 1 14 6 2 1 3 1 8 3 4 2 1 56 14 221 302 396 1
"283" 1 202 704 ">" "+" "sonaPRP" "g_Floete.wav" "Harfe___.bmp" "rechts__.bmp" ">" 312 500 2 10 2 16 8 2 1 3 5 6 3 4 2 1 48 133 10 16 382 1
"284" 1 202 1251 "/" "0" "sonaPRP" "g_Floete.wav" "Harfe___.bmp" "rechts__.bmp" ">" 312 500 2 10 2 16 8 2 1 3 5 6 3 4 2 1 48 133 10 16 382 1
"285" 1 203 594 "<" "+" "sonaPRP" "g_Bohrer.wav" "Bohrer__.bmp" "links___.bmp" "<" 312 500 1 4 2 4 7 2 1 3 4 3 3 4 2 1 4 120 199 272 360 1
"286" 1 203 1005 "/" "0" "sonaPRP" "g_Bohrer.wav" "Bohrer__.bmp" "links___.bmp" "<" 312 500 1 4 2 4 7 2 1 3 4 3 3 4 2 1 4 120 199 272 360 1
"287" 1 204 691 ">" "+" "sonaPRP" "g_Schere.wav" "Schere__.bmp" "rechts__.bmp" ">" 672 0 1 26 1 26 14 2 1 3 4 13 3 4 2 1 89 173 246 326 26 1
"288" 1 204 1115 "/" "0" "sonaPRP" "g_Schere.wav" "Schere__.bmp" "rechts__.bmp" ">" 672 0 1 26 1 26 14 2 1 3 4 13 3 4 2 1 89 173 246 326 26 1
"289" 1 205 470 "<" "+" "sonaPRP" "g_Orgel_.wav" "Geige___.bmp" "links___.bmp" "<" 312 0 2 22 1 11 11 2 1 3 5 11 3 4 2 1 78 11 237 22 427 1
"290" 1 205 1011 "/" "0" "sonaPRP" "g_Orgel_.wav" "Geige___.bmp" "links___.bmp" "<" 312 0 2 22 1 11 11 2 1 3 5 11 3 4 2 1 78 11 237 22 427 1
"291" 1 206 704 "<" "+" "sonaPRP" "g_Dudels.wav" "Dudels__.bmp" "links___.bmp" "<" 672 500 1 5 2 5 15 2 1 3 5 4 3 4 2 1 37 5 202 275 364 1
"292" 1 206 817 "/" "0" "sonaPRP" "g_Dudels.wav" "Dudels__.bmp" "links___.bmp" "<" 672 500 1 5 2 5 15 2 1 3 5 4 3 4 2 1 37 5 202 275 364 1
"293" 1 207 533 ">" "+" "sonaPRP" "g_Kuh___.wav" "Kuh_____.bmp" "rechts__.bmp" ">" 672 0 1 20 1 20 10 2 1 3 1 9 3 4 2 1 71 157 231 20 418 1
"294" 1 207 1096 "/" "0" "sonaPRP" "g_Kuh___.wav" "Kuh_____.bmp" "rechts__.bmp" ">" 672 0 1 20 1 20 10 2 1 3 1 9 3 4 2 1 71 157 231 20 418 1
"295" 1 208 570 "<" "+" "sonaPRP" "g_Schiff.wav" "Zug_____.bmp" "links___.bmp" "<" 672 500 2 27 2 32 16 2 1 3 2 13 3 4 2 1 93 32 250 330 27 1
"296" 1 208 1106 "/" "0" "sonaPRP" "g_Schiff.wav" "Zug_____.bmp" "links___.bmp" "<" 672 500 2 27 2 32 16 2 1 3 2 13 3 4 2 1 93 32 250 330 27 1
"297" 1 209 536 ">" "+" "sonaPRP" "g_Geige_.wav" "Geige___.bmp" "rechts__.bmp" ">" 312 500 1 11 2 11 11 2 1 3 5 7 3 4 2 1 50 11 215 293 385 1
"298" 1 209 1157 "/" "0" "sonaPRP" "g_Geige_.wav" "Geige___.bmp" "rechts__.bmp" ">" 312 500 1 11 2 11 11 2 1 3 5 7 3 4 2 1 50 11 215 293 385 1
"299" 1 210 502 "<" "+" "sonaPRP" "g_Loewe_.wav" "Glocke__.bmp" "links___.bmp" "<" 672 500 3 21 2 13 9 2 1 3 1 10 3 4 2 1 13 21 220 300 394 1
"300" 1 210 951 "/" "0" "sonaPRP" "g_Loewe_.wav" "Glocke__.bmp" "links___.bmp" "<" 672 500 3 21 2 13 9 2 1 3 1 10 3 4 2 1 13 21 220 300 394 1
"301" 1 211 682 "<" "+" "sonaPRP" "g_Hammer.wav" "Bohrer__.bmp" "links___.bmp" "<" 672 0 2 15 1 4 7 2 1 3 4 8 3 4 2 1 4 144 15 306 400 1
"302" 1 211 1285 "/" "0" "sonaPRP" "g_Hammer.wav" "Bohrer__.bmp" "links___.bmp" "<" 672 0 2 15 1 4 7 2 1 3 4 8 3 4 2 1 4 144 15 306 400 1
"303" 1 212 533 ">" "+" "sonaPRP" "g_Glocke.wav" "Schere__.bmp" "rechts__.bmp" ">" 312 0 4 13 1 26 5 2 1 3 6 7 3 4 2 1 13 176 248 328 26 1
"304" 1 212 1285 "/" "0" "sonaPRP" "g_Glocke.wav" "Schere__.bmp" "rechts__.bmp" ">" 312 0 4 13 1 26 5 2 1 3 6 7 3 4 2 1 13 176 248 328 26 1
"305" 1 213 813 "<" "+" "sonaPRP" "g_Affe__.wav" "Floete__.bmp" "links___.bmp" "<" 672 500 4 1 2 10 10 2 1 3 1 1 3 4 2 1 1 135 10 292 384 1
"306" 1 213 1045 "/" "0" "sonaPRP" "g_Affe__.wav" "Floete__.bmp" "links___.bmp" "<" 672 500 4 1 2 10 10 2 1 3 1 1 3 4 2 1 1 135 10 292 384 1
"307" 1 214 567 "<" "+" "sonaPRP" "g_Tromme.wav" "Gitarr__.bmp" "links___.bmp" "<" 312 500 2 30 2 12 4 2 1 3 5 14 3 4 2 1 105 185 12 338 30 1
"308" 1 214 1006 "/" "0" "sonaPRP" "g_Tromme.wav" "Gitarr__.bmp" "links___.bmp" "<" 312 500 2 30 2 12 4 2 1 3 5 14 3 4 2 1 105 185 12 338 30 1
"309" 1 215 573 ">" "+" "sonaPRP" "g_Zug___.wav" "Esel____.bmp" "rechts__.bmp" ">" 672 0 3 32 1 8 16 2 1 3 2 15 3 4 2 1 8 32 213 286 376 1
"310" 1 215 1278 "/" "0" "sonaPRP" "g_Zug___.wav" "Esel____.bmp" "rechts__.bmp" ">" 672 0 3 32 1 8 16 2 1 3 2 15 3 4 2 1 8 32 213 286 376 1
"311" 1 216 836 "<" "+" "sonaPRP" "g_Trompe.wav" "Dudels__.bmp" "links___.bmp" "<" 672 0 2 31 1 5 15 2 1 3 5 14 3 4 2 1 108 5 258 342 31 1
"312" 1 216 1484 "/" "0" "sonaPRP" "g_Trompe.wav" "Dudels__.bmp" "links___.bmp" "<" 672 0 2 31 1 5 15 2 1 3 5 14 3 4 2 1 108 5 258 342 31 1
"313" 1 217 644 ">" "+" "sonaPRP" "g_Hund__.wav" "Pferd___.bmp" "rechts__.bmp" ">" 672 500 2 17 2 23 12 2 1 3 1 8 3 4 2 1 17 150 23 309 407 1
"314" 1 217 856 "/" "0" "sonaPRP" "g_Hund__.wav" "Pferd___.bmp" "rechts__.bmp" ">" 672 500 2 17 2 23 12 2 1 3 1 8 3 4 2 1 17 150 23 309 407 1
"315" 1 218 558 ">" "+" "sonaPRP" "g_Esel__.wav" "Hammer__.bmp" "rechts__.bmp" ">" 312 500 3 8 2 15 13 2 1 3 1 5 3 4 2 1 8 145 15 307 401 1
"316" 1 218 1287 "/" "0" "sonaPRP" "g_Esel__.wav" "Hammer__.bmp" "rechts__.bmp" ">" 312 500 3 8 2 15 13 2 1 3 1 5 3 4 2 1 8 145 15 307 401 1
"317" 1 219 748 "<" "+" "sonaPRP" "g_Harfe_.wav" "Ente____.bmp" "links___.bmp" "<" 672 0 3 16 1 7 8 2 1 3 5 8 3 4 2 1 7 124 210 16 372 1
"318" 1 219 1702 "/" "0" "sonaPRP" "g_Harfe_.wav" "Ente____.bmp" "links___.bmp" "<" 672 0 3 16 1 7 8 2 1 3 5 8 3 4 2 1 7 124 210 16 372 1
"319" 1 220 692 "<" "+" "sonaPRP" "g_Klinge.wav" "Schere__.bmp" "links___.bmp" "<" 312 500 3 19 2 26 5 2 1 3 6 9 3 4 2 1 91 175 19 327 26 1
"320" 1 220 1149 "/" "0" "sonaPRP" "g_Klinge.wav" "Schere__.bmp" "links___.bmp" "<" 312 500 3 19 2 26 5 2 1 3 6 9 3 4 2 1 91 175 19 327 26 1
"321" 1 221 812 ">" "+" "sonaPRP" "g_Saege_.wav" "Affe____.bmp" "rechts__.bmp" ">" 312 500 4 24 2 1 14 2 1 3 4 12 3 4 2 1 1 116 194 24 351 1
"322" 1 221 1185 "/" "0" "sonaPRP" "g_Saege_.wav" "Affe____.bmp" "rechts__.bmp" ">" 312 500 4 24 2 1 14 2 1 3 4 12 3 4 2 1 1 116 194 24 351 1
"323" 1 222 565 "<" "+" "sonaPRP" "g_Katze_.wav" "Glocke__.bmp" "links___.bmp" "<" 672 0 4 18 1 13 9 2 1 3 1 9 3 4 2 1 13 142 18 301 395 1
"324" 1 222 1289 "/" "0" "sonaPRP" "g_Katze_.wav" "Glocke__.bmp" "links___.bmp" "<" 672 0 4 18 1 13 9 2 1 3 1 9 3 4 2 1 13 142 18 301 395 1
"325" 1 223 659 ">" "+" "sonaPRP" "g_Elefan.wav" "Elefan__.bmp" "rechts__.bmp" ">" 672 0 1 6 1 6 2 2 1 3 1 5 3 4 2 1 40 6 205 279 367 1
"326" 1 223 1218 "/" "0" "sonaPRP" "g_Elefan.wav" "Elefan__.bmp" "rechts__.bmp" ">" 672 0 1 6 1 6 2 2 1 3 1 5 3 4 2 1 40 6 205 279 367 1
"327" 1 224 743 "<" "+" "sonaPRP" "g_Auto__.wav" "Auto____.bmp" "links___.bmp" "<" 312 500 1 2 2 2 3 2 1 3 2 2 3 4 2 1 2 117 195 265 352 1
"328" 1 224 956 "/" "0" "sonaPRP" "g_Auto__.wav" "Auto____.bmp" "links___.bmp" "<" 312 500 1 2 2 2 3 2 1 3 2 2 3 4 2 1 2 117 195 265 352 1
"329" 1 225 480 ">" "+" "sonaPRP" "g_Ente__.wav" "Klinge__.bmp" "rechts__.bmp" ">" 312 500 4 7 2 19 6 2 1 3 1 5 3 4 2 1 7 156 19 317 417 1
"330" 1 225 1041 "/" "0" "sonaPRP" "g_Ente__.wav" "Klinge__.bmp" "rechts__.bmp" ">" 312 500 4 7 2 19 6 2 1 3 1 5 3 4 2 1 7 156 19 317 417 1
"331" 1 226 653 ">" "+" "sonaPRP" "g_Besen_.wav" "Kuh_____.bmp" "rechts__.bmp" ">" 672 0 4 3 1 20 1 2 1 3 3 3 3 4 2 1 73 3 233 20 421 1
"332" 1 226 849 "/" "3" "sonaPRP" "g_Besen_.wav" "Kuh_____.bmp" "rechts__.bmp" ">" 672 0 4 3 1 20 1 2 1 3 3 3 3 4 2 1 73 3 233 20 421 1
"333" 1 227 698 "<" "+" "sonaPRP" "g_Schaf_.wav" "Hammer__.bmp" "links___.bmp" "<" 312 0 4 25 1 15 13 2 1 3 1 13 3 4 2 1 60 146 15 25 402 1
"334" 1 227 1156 "/" "0" "sonaPRP" "g_Schaf_.wav" "Hammer__.bmp" "links___.bmp" "<" 312 0 4 25 1 15 13 2 1 3 1 13 3 4 2 1 60 146 15 25 402 1
"335" 1 228 685 ">" "+" "sonaPRP" "g_Pferd_.wav" "Tromme__.bmp" "rechts__.bmp" ">" 312 0 3 23 1 30 12 2 1 3 1 6 3 4 2 1 106 186 23 339 30 1
"336" 1 228 1345 "/" "0" "sonaPRP" "g_Pferd_.wav" "Tromme__.bmp" "rechts__.bmp" ">" 312 0 3 23 1 30 12 2 1 3 1 6 3 4 2 1 106 186 23 339 30 1
"337" 1 229 429 "<" "-" "sonaPRP" "g_Staubs.wav" "Kuh_____.bmp" "rechts__.bmp" ">" 672 500 3 29 2 20 1 2 1 3 3 13 3 4 2 1 72 159 29 20 420 1
"338" 1 229 1355 "/" "0" "sonaPRP" "g_Staubs.wav" "Kuh_____.bmp" "rechts__.bmp" ">" 672 500 3 29 2 20 1 2 1 3 3 13 3 4 2 1 72 159 29 20 420 1
"339" 1 230 746 "<" "+" "sonaPRP" "g_Fahrra.wav" "Auto____.bmp" "links___.bmp" "<" 312 0 2 9 1 2 3 2 1 3 2 6 3 4 2 1 2 130 9 289 378 1
"340" 1 230 1447 "/" "0" "sonaPRP" "g_Fahrra.wav" "Auto____.bmp" "links___.bmp" "<" 312 0 2 9 1 2 3 2 1 3 2 6 3 4 2 1 2 130 9 289 378 1
"341" 1 231 517 ">" "+" "sonaPRP" "g_Bohrer.wav" "Dudels__.bmp" "rechts__.bmp" ">" 312 500 4 4 2 5 7 2 1 4 4 3 4 2 1 3 4 5 204 278 366 1
"342" 1 231 1771 "/" "0" "sonaPRP" "g_Bohrer.wav" "Dudels__.bmp" "rechts__.bmp" ">" 312 500 4 4 2 5 7 2 1 4 4 3 4 2 1 3 4 5 204 278 366 1
"343" 1 232 541 ">" "+" "sonaPRP" "g_Katze_.wav" "Schiff__.bmp" "rechts__.bmp" ">" 312 0 3 18 1 27 9 2 1 4 1 9 4 2 1 3 94 178 18 331 27 1
"344" 1 232 1103 "/" "0" "sonaPRP" "g_Katze_.wav" "Schiff__.bmp" "rechts__.bmp" ">" 312 0 3 18 1 27 9 2 1 4 1 9 4 2 1 3 94 178 18 331 27 1
"345" 1 233 684 ">" "+" "sonaPRP" "g_Elefan.wav" "Fahrra__.bmp" "rechts__.bmp" ">" 672 0 4 6 1 9 2 2 1 4 1 5 4 2 1 3 46 6 9 290 380 1
"346" 1 233 1406 "/" "0" "sonaPRP" "g_Elefan.wav" "Fahrra__.bmp" "rechts__.bmp" ">" 672 0 4 6 1 9 2 2 1 4 1 5 4 2 1 3 46 6 9 290 380 1
"347" 1 234 748 "<" "+" "sonaPRP" "g_Trompe.wav" "Trompe__.bmp" "links___.bmp" "<" 312 0 1 31 1 31 15 2 1 4 5 14 4 2 1 3 107 188 257 341 31 1
"348" 1 234 1460 "/" "0" "sonaPRP" "g_Trompe.wav" "Trompe__.bmp" "links___.bmp" "<" 312 0 1 31 1 31 15 2 1 4 5 14 4 2 1 3 107 188 257 341 31 1
"349" 1 235 537 ">" "+" "sonaPRP" "g_Affe__.wav" "Gitarr__.bmp" "rechts__.bmp" ">" 312 500 3 1 2 12 10 2 1 4 1 1 4 2 1 3 1 138 12 297 390 1
"350" 1 235 793 "/" "0" "sonaPRP" "g_Affe__.wav" "Gitarr__.bmp" "rechts__.bmp" ">" 312 500 3 1 2 12 10 2 1 4 1 1 4 2 1 3 1 138 12 297 390 1
"351" 1 236 655 "<" "+" "sonaPRP" "g_Klinge.wav" "Glocke__.bmp" "links___.bmp" "<" 672 500 2 19 2 13 5 2 1 4 6 9 4 2 1 3 13 155 19 315 415 1
"352" 1 236 1100 "/" "0" "sonaPRP" "g_Klinge.wav" "Glocke__.bmp" "links___.bmp" "<" 672 500 2 19 2 13 5 2 1 4 6 9 4 2 1 3 13 155 19 315 415 1
"353" 1 237 585 ">" "+" "sonaPRP" "g_Orgel_.wav" "Orgel___.bmp" "rechts__.bmp" ">" 312 0 1 22 1 22 11 2 1 4 5 11 4 2 1 3 77 160 236 22 426 1
"354" 1 237 1234 "/" "0" "sonaPRP" "g_Orgel_.wav" "Orgel___.bmp" "rechts__.bmp" ">" 312 0 1 22 1 22 11 2 1 4 5 11 4 2 1 3 77 160 236 22 426 1
"355" 1 238 700 ">" "+" "sonaPRP" "g_Harfe_.wav" "Floete__.bmp" "rechts__.bmp" ">" 672 0 2 16 1 10 8 2 1 4 5 8 4 2 1 3 62 449 10 16 404 1
"356" 1 238 1530 "/" "1" "sonaPRP" "g_Harfe_.wav" "Floete__.bmp" "rechts__.bmp" ">" 672 0 2 16 1 10 8 2 1 4 5 8 4 2 1 3 62 449 10 16 404 1
"357" 1 239 772 ">" "+" "sonaPRP" "g_Esel__.wav" "Schaf___.bmp" "rechts__.bmp" ">" 312 500 2 8 2 25 13 2 1 4 1 5 4 2 1 3 8 127 212 25 375 1
"358" 1 239 1580 "/" "0" "sonaPRP" "g_Esel__.wav" "Schaf___.bmp" "rechts__.bmp" ">" 312 500 2 8 2 25 13 2 1 4 1 5 4 2 1 3 8 127 212 25 375 1
"359" 1 240 699 "<" "+" "sonaPRP" "g_Hahn__.wav" "Orgel___.bmp" "links___.bmp" "<" 312 0 4 14 1 22 6 2 1 4 1 8 4 2 1 3 79 14 239 22 429 1
"360" 1 240 1176 "/" "0" "sonaPRP" "g_Hahn__.wav" "Orgel___.bmp" "links___.bmp" "<" 312 0 4 14 1 22 6 2 1 4 1 8 4 2 1 3 79 14 239 22 429 1
"361" 1 241 739 "<" "+" "sonaPRP" "g_Tromme.wav" "Tromme__.bmp" "links___.bmp" "<" 672 500 1 30 2 30 4 2 1 4 5 14 4 2 1 3 104 184 255 337 30 1
"362" 1 241 1016 "/" "0" "sonaPRP" "g_Tromme.wav" "Tromme__.bmp" "links___.bmp" "<" 672 500 1 30 2 30 4 2 1 4 5 14 4 2 1 3 104 184 255 337 30 1
"363" 1 242 628 "<" "+" "sonaPRP" "g_Dudels.wav" "Staubs__.bmp" "links___.bmp" "<" 672 500 4 5 2 29 15 2 1 4 5 4 4 2 1 3 103 5 29 336 445 1
"364" 1 242 1079 "/" "0" "sonaPRP" "g_Dudels.wav" "Staubs__.bmp" "links___.bmp" "<" 672 500 4 5 2 29 15 2 1 4 5 4 4 2 1 3 103 5 29 336 445 1
"365" 1 243 542 ">" "+" "sonaPRP" "g_Besen_.wav" "Auto____.bmp" "rechts__.bmp" ">" 312 0 3 3 1 2 1 2 1 4 3 3 4 2 1 3 2 3 196 267 354 1
"366" 1 243 1124 "/" "0" "sonaPRP" "g_Besen_.wav" "Auto____.bmp" "rechts__.bmp" ">" 312 0 3 3 1 2 1 2 1 4 3 3 4 2 1 3 2 3 196 267 354 1
"367" 1 244 446 "<" "+" "sonaPRP" "g_Geige_.wav" "Hund____.bmp" "links___.bmp" "<" 672 500 4 11 2 17 11 2 1 4 5 7 4 2 1 3 17 11 230 310 409 1
"368" 1 244 1316 "/" "0" "sonaPRP" "g_Geige_.wav" "Hund____.bmp" "links___.bmp" "<" 672 500 4 11 2 17 11 2 1 4 5 7 4 2 1 3 17 11 230 310 409 1
"369" 1 245 605 ">" "+" "sonaPRP" "g_Schiff.wav" "Schiff__.bmp" "rechts__.bmp" ">" 672 500 1 27 2 27 16 2 1 4 2 13 4 2 1 3 92 177 249 329 27 1
"370" 1 245 848 "/" "0" "sonaPRP" "g_Schiff.wav" "Schiff__.bmp" "rechts__.bmp" ">" 672 500 1 27 2 27 16 2 1 4 2 13 4 2 1 3 92 177 249 329 27 1
"371" 1 246 656 "<" "+" "sonaPRP" "g_Floete.wav" "Floete__.bmp" "links___.bmp" "<" 312 500 1 10 2 10 8 2 1 4 5 6 4 2 1 3 47 132 10 291 381 1
"372" 1 246 1160 "/" "0" "sonaPRP" "g_Floete.wav" "Floete__.bmp" "links___.bmp" "<" 312 500 1 10 2 10 8 2 1 4 5 6 4 2 1 3 47 132 10 291 381 1
"373" 1 247 773 "<" "+" "sonaPRP" "g_Glocke.wav" "Schwei__.bmp" "links___.bmp" "<" 672 0 3 13 1 28 5 2 1 4 6 7 4 2 1 3 13 180 254 28 441 1
"374" 1 247 1355 "/" "0" "sonaPRP" "g_Glocke.wav" "Schwei__.bmp" "links___.bmp" "<" 672 0 3 13 1 28 5 2 1 4 6 7 4 2 1 3 13 180 254 28 441 1
"375" 1 248 647 ">" "+" "sonaPRP" "g_Schaf_.wav" "Geige___.bmp" "rechts__.bmp" ">" 672 0 3 25 1 11 13 2 1 4 1 13 4 2 1 3 52 11 217 25 387 1
"376" 1 248 979 "/" "0" "sonaPRP" "g_Schaf_.wav" "Geige___.bmp" "rechts__.bmp" ">" 672 0 3 25 1 11 13 2 1 4 1 13 4 2 1 3 52 11 217 25 387 1
"377" 1 249 680 "<" "+" "sonaPRP" "g_Pferd_.wav" "Hund____.bmp" "links___.bmp" "<" 312 0 2 23 1 17 12 2 1 4 1 6 4 2 1 3 17 163 23 323 431 1
"378" 1 249 1393 "/" "0" "sonaPRP" "g_Pferd_.wav" "Hund____.bmp" "links___.bmp" "<" 312 0 2 23 1 17 12 2 1 4 1 6 4 2 1 3 17 163 23 323 431 1
"379" 1 250 682 "<" "+" "sonaPRP" "g_Staubs.wav" "Besen___.bmp" "links___.bmp" "<" 672 500 2 29 2 3 1 2 1 4 3 13 4 2 1 3 100 3 29 334 444 1
"380" 1 250 956 "/" "0" "sonaPRP" "g_Staubs.wav" "Besen___.bmp" "links___.bmp" "<" 672 500 2 29 2 3 1 2 1 4 3 13 4 2 1 3 100 3 29 334 444 1
"381" 1 251 678 ">" "+" "sonaPRP" "g_Loewe_.wav" "Katze___.bmp" "rechts__.bmp" ">" 672 500 2 21 2 18 9 2 1 4 1 10 4 2 1 3 75 21 18 319 423 1
"382" 1 251 896 "/" "0" "sonaPRP" "g_Loewe_.wav" "Katze___.bmp" "rechts__.bmp" ">" 672 500 2 21 2 18 9 2 1 4 1 10 4 2 1 3 75 21 18 319 423 1
"383" 1 252 643 "<" "+" "sonaPRP" "g_Saege_.wav" "Hahn____.bmp" "links___.bmp" "<" 672 500 3 24 2 14 14 2 1 4 4 12 4 2 1 3 57 14 223 24 398 1
"384" 1 252 997 "/" "0" "sonaPRP" "g_Saege_.wav" "Hahn____.bmp" "links___.bmp" "<" 672 500 3 24 2 14 14 2 1 4 4 12 4 2 1 3 57 14 223 24 398 1
"385" 1 253 653 ">" "+" "sonaPRP" "g_Zug___.wav" "Schiff__.bmp" "rechts__.bmp" ">" 312 0 2 32 1 27 16 2 1 4 2 15 4 2 1 3 111 32 261 346 27 1
"386" 1 253 1585 "/" "0" "sonaPRP" "g_Zug___.wav" "Schiff__.bmp" "rechts__.bmp" ">" 312 0 2 32 1 27 16 2 1 4 2 15 4 2 1 3 111 32 261 346 27 1
"387" 1 254 750 ">" "+" "sonaPRP" "g_Kuh___.wav" "Gitarr__.bmp" "rechts__.bmp" ">" 672 0 4 20 1 12 10 2 1 4 1 9 4 2 1 3 55 139 12 20 391 1
"388" 1 254 1389 "/" "0" "sonaPRP" "g_Kuh___.wav" "Gitarr__.bmp" "rechts__.bmp" ">" 672 0 4 20 1 12 10 2 1 4 1 9 4 2 1 3 55 139 12 20 391 1
"389" 1 255 485 "<" "+" "sonaPRP" "g_Hund__.wav" "Hund____.bmp" "links___.bmp" "<" 312 500 1 17 2 17 12 2 1 4 1 8 4 2 1 3 17 149 228 308 406 1
"390" 1 255 687 "/" "0" "sonaPRP" "g_Hund__.wav" "Hund____.bmp" "links___.bmp" "<" 312 500 1 17 2 17 12 2 1 4 1 8 4 2 1 3 17 149 228 308 406 1
"391" 1 256 818 "<" "+" "sonaPRP" "g_Schere.wav" "Hahn____.bmp" "links___.bmp" "<" 672 0 4 26 1 14 14 2 1 4 4 13 4 2 1 3 58 14 224 304 26 1
"392" 1 256 1403 "/" "0" "sonaPRP" "g_Schere.wav" "Hahn____.bmp" "links___.bmp" "<" 672 0 4 26 1 14 14 2 1 4 4 13 4 2 1 3 58 14 224 304 26 1
"393" 1 257 591 ">" "+" "sonaPRP" "g_Auto__.wav" "Loewe___.bmp" "rechts__.bmp" ">" 672 500 4 2 2 21 3 2 1 4 2 2 4 2 1 3 2 21 235 321 425 1
"394" 1 257 1001 "/" "0" "sonaPRP" "g_Auto__.wav" "Loewe___.bmp" "rechts__.bmp" ">" 672 500 4 2 2 21 3 2 1 4 2 2 4 2 1 3 2 21 235 321 425 1
"395" 1 258 604 "<" "+" "sonaPRP" "g_Schwei.wav" "Fahrra__.bmp" "links___.bmp" "<" 312 500 3 28 2 9 2 2 1 4 1 13 4 2 1 3 45 131 9 28 379 1
"396" 1 258 888 "/" "0" "sonaPRP" "g_Schwei.wav" "Fahrra__.bmp" "links___.bmp" "<" 312 500 3 28 2 9 2 2 1 4 1 13 4 2 1 3 45 131 9 28 379 1
"397" 1 259 681 "<" "+" "sonaPRP" "g_Gitarr.wav" "Tromme__.bmp" "links___.bmp" "<" 312 0 2 12 1 30 4 2 1 4 5 7 4 2 1 3 54 137 12 296 30 1
"398" 1 259 1315 "/" "0" "sonaPRP" "g_Gitarr.wav" "Tromme__.bmp" "links___.bmp" "<" 312 0 2 12 1 30 4 2 1 4 5 7 4 2 1 3 54 137 12 296 30 1
"399" 1 260 616 ">" "+" "sonaPRP" "g_Ente__.wav" "Orgel___.bmp" "rechts__.bmp" ">" 312 500 3 7 2 22 6 2 1 4 1 5 4 2 1 3 7 161 238 22 428 1
"400" 1 260 942 "/" "0" "sonaPRP" "g_Ente__.wav" "Orgel___.bmp" "rechts__.bmp" ">" 312 500 3 7 2 22 6 2 1 4 1 5 4 2 1 3 7 161 238 22 428 1
"401" 1 261 657 ">" "+" "sonaPRP" "g_Fahrra.wav" "Fahrra__.bmp" "rechts__.bmp" ">" 672 0 1 9 1 9 3 2 1 4 2 6 4 2 1 3 44 129 9 288 377 1
"402" 1 261 1635 "/" "0" "sonaPRP" "g_Fahrra.wav" "Fahrra__.bmp" "rechts__.bmp" ">" 672 0 1 9 1 9 3 2 1 4 2 6 4 2 1 3 44 129 9 288 377 1
"403" 1 262 737 "<" "+" "sonaPRP" "g_Hammer.wav" "Hammer__.bmp" "links___.bmp" "<" 312 0 1 15 1 15 7 2 1 4 4 8 4 2 1 3 59 143 15 305 399 1
"404" 1 262 1319 "/" "0" "sonaPRP" "g_Hammer.wav" "Hammer__.bmp" "links___.bmp" "<" 312 0 1 15 1 15 7 2 1 4 4 8 4 2 1 3 59 143 15 305 399 1
"405" 1 265 568 "<" "+" "sonaPRP" "g_Kanone.wav" "Frosch__.bmp" "links___.bmp" "<" 312 500 5 92 9 90 0 0 0 0 7 9 0 0 0 0 470 472 474 476 478 1
"406" 1 265 977 "/" "0" "sonaPRP" "g_Kanone.wav" "Frosch__.bmp" "links___.bmp" "<" 312 500 5 92 9 90 0 0 0 0 7 9 0 0 0 0 470 472 474 476 478 1
"407" 1 266 570 ">" "+" "sonaPRP" "g_Pfeife.wav" "Pistol__.bmp" "rechts__.bmp" ">" 672 0 6 93 9 94 0 0 0 0 6 6 0 0 0 0 471 473 475 477 479 1
"408" 1 266 1230 "/" "0" "sonaPRP" "g_Pfeife.wav" "Pistol__.bmp" "rechts__.bmp" ">" 672 0 6 93 9 94 0 0 0 0 6 6 0 0 0 0 471 473 475 477 479 1
"409" 1 267 454 "<" "+" "sonaPRP" "g_Elefan.wav" "Bohrer__.bmp" "links___.bmp" "<" 312 500 3 6 1 4 2 3 2 5 1 5 2 1 3 4 4 6 200 274 362 1
"410" 1 267 762 "/" "0" "sonaPRP" "g_Elefan.wav" "Bohrer__.bmp" "links___.bmp" "<" 312 500 3 6 1 4 2 3 2 5 1 5 2 1 3 4 4 6 200 274 362 1
"411" 1 268 656 ">" "+" "sonaPRP" "g_Zug___.wav" "Zug_____.bmp" "rechts__.bmp" ">" 672 500 1 32 1 32 16 3 2 5 2 15 2 1 3 4 110 32 260 345 446 1
"412" 1 268 870 "/" "0" "sonaPRP" "g_Zug___.wav" "Zug_____.bmp" "rechts__.bmp" ">" 672 500 1 32 1 32 16 3 2 5 2 15 2 1 3 4 110 32 260 345 446 1
"413" 1 269 657 "<" "+" "sonaPRP" "g_Kuh___.wav" "Floete__.bmp" "links___.bmp" "<" 672 500 3 20 1 10 10 3 2 5 1 9 2 1 3 4 49 134 10 20 383 1
"414" 1 269 1012 "/" "0" "sonaPRP" "g_Kuh___.wav" "Floete__.bmp" "links___.bmp" "<" 672 500 3 20 1 10 10 3 2 5 1 9 2 1 3 4 49 134 10 20 383 1
"415" 1 270 446 ">" "+" "sonaPRP" "g_Hund__.wav" "Tromme__.bmp" "rechts__.bmp" ">" 312 0 4 17 2 30 12 3 2 5 1 8 2 1 3 4 17 187 256 340 30 1
"416" 1 270 925 "/" "0" "sonaPRP" "g_Hund__.wav" "Tromme__.bmp" "rechts__.bmp" ">" 312 0 4 17 2 30 12 3 2 5 1 8 2 1 3 4 17 187 256 340 30 1
"417" 1 271 614 "<" "+" "sonaPRP" "g_Fahrra.wav" "Schaf___.bmp" "links___.bmp" "<" 312 500 4 9 1 25 3 3 2 5 2 6 2 1 3 4 88 172 9 25 438 1
"418" 1 271 406 "/" "3" "sonaPRP" "g_Fahrra.wav" "Schaf___.bmp" "links___.bmp" "<" 312 500 4 9 1 25 3 3 2 5 2 6 2 1 3 4 88 172 9 25 438 1
"419" 1 272 621 "<" "+" "sonaPRP" "g_Staubs.wav" "Staubs__.bmp" "links___.bmp" "<" 312 0 1 29 2 29 1 3 2 5 3 13 2 1 3 4 99 182 29 333 443 1
"420" 1 272 1199 "/" "0" "sonaPRP" "g_Staubs.wav" "Staubs__.bmp" "links___.bmp" "<" 312 0 1 29 2 29 1 3 2 5 3 13 2 1 3 4 99 182 29 333 443 1
"421" 1 273 587 ">" "+" "sonaPRP" "g_Klinge.wav" "Klinge__.bmp" "rechts__.bmp" ">" 672 0 1 19 2 19 5 3 2 5 6 9 2 1 3 4 69 154 19 314 414 1
"422" 1 273 1190 "/" "0" "sonaPRP" "g_Klinge.wav" "Klinge__.bmp" "rechts__.bmp" ">" 672 0 1 19 2 19 5 3 2 5 6 9 2 1 3 4 69 154 19 314 414 1
"423" 1 274 586 "<" "+" "sonaPRP" "g_Bohrer.wav" "Trompe__.bmp" "links___.bmp" "<" 672 0 3 4 2 31 7 3 2 5 4 3 2 1 3 4 4 189 259 343 31 1
"424" 1 274 1800 "/" "0" "sonaPRP" "g_Bohrer.wav" "Trompe__.bmp" "links___.bmp" "<" 672 0 3 4 2 31 7 3 2 5 4 3 2 1 3 4 4 189 259 343 31 1
"425" 1 275 522 ">" "+" "sonaPRP" "g_Orgel_.wav" "Katze___.bmp" "rechts__.bmp" ">" 672 500 4 22 1 18 11 3 2 5 5 11 2 1 3 4 68 153 18 22 413 1
"426" 1 275 760 "/" "0" "sonaPRP" "g_Orgel_.wav" "Katze___.bmp" "rechts__.bmp" ">" 672 500 4 22 1 18 11 3 2 5 5 11 2 1 3 4 68 153 18 22 413 1
"427" 1 276 593 "<" "+" "sonaPRP" "g_Besen_.wav" "Staubs__.bmp" "links___.bmp" "<" 312 500 2 3 1 29 1 3 2 5 3 3 2 1 3 4 34 3 29 270 357 1
"428" 1 276 983 "/" "0" "sonaPRP" "g_Besen_.wav" "Staubs__.bmp" "links___.bmp" "<" 312 500 2 3 1 29 1 3 2 5 3 3 2 1 3 4 34 3 29 270 357 1
"429" 1 277 693 ">" "+" "sonaPRP" "g_Schere.wav" "Affe____.bmp" "rechts__.bmp" ">" 312 500 3 26 1 1 14 3 2 5 4 13 2 1 3 4 1 115 193 264 26 1
"430" 1 277 920 "/" "0" "sonaPRP" "g_Schere.wav" "Affe____.bmp" "rechts__.bmp" ">" 312 500 3 26 1 1 14 3 2 5 4 13 2 1 3 4 1 115 193 264 26 1
"431" 1 278 503 "<" "+" "sonaPRP" "g_Esel__.wav" "Esel____.bmp" "links___.bmp" "<" 312 0 1 8 2 8 13 3 2 5 1 5 2 1 3 4 8 126 211 285 374 1
"432" 1 278 1098 "/" "0" "sonaPRP" "g_Esel__.wav" "Esel____.bmp" "links___.bmp" "<" 312 0 1 8 2 8 13 3 2 5 1 5 2 1 3 4 8 126 211 285 374 1
"433" 1 279 760 ">" "+" "sonaPRP" "g_Affe__.wav" "Kuh_____.bmp" "rechts__.bmp" ">" 672 0 2 1 2 20 10 3 2 5 1 1 2 1 3 4 1 114 192 20 350 1
"434" 1 279 1332 "/" "0" "sonaPRP" "g_Affe__.wav" "Kuh_____.bmp" "rechts__.bmp" ">" 672 0 2 1 2 20 10 3 2 5 1 1 2 1 3 4 1 114 192 20 350 1
"435" 1 280 644 ">" "+" "sonaPRP" "g_Glocke.wav" "Klinge__.bmp" "rechts__.bmp" ">" 312 500 2 13 1 19 5 3 2 5 6 7 2 1 3 4 13 141 19 299 393 1
"436" 1 280 1151 "/" "0" "sonaPRP" "g_Glocke.wav" "Klinge__.bmp" "rechts__.bmp" ">" 312 500 2 13 1 19 5 3 2 5 6 7 2 1 3 4 13 141 19 299 393 1
"437" 1 281 600 "<" "+" "sonaPRP" "g_Saege_.wav" "Schere__.bmp" "links___.bmp" "<" 672 0 2 24 2 26 14 3 2 5 4 12 2 1 3 4 84 166 241 24 26 1
"438" 1 281 1927 "/" "0" "sonaPRP" "g_Saege_.wav" "Schere__.bmp" "links___.bmp" "<" 672 0 2 24 2 26 14 3 2 5 4 12 2 1 3 4 84 166 241 24 26 1
"439" 1 282 549 ">" "+" "sonaPRP" "g_Loewe_.wav" "Loewe___.bmp" "rechts__.bmp" ">" 312 0 1 21 2 21 9 3 2 5 1 10 2 1 3 4 74 21 234 318 422 1
"440" 1 282 1083 "/" "0" "sonaPRP" "g_Loewe_.wav" "Loewe___.bmp" "rechts__.bmp" ">" 312 0 1 21 2 21 9 3 2 5 1 10 2 1 3 4 74 21 234 318 422 1
"441" 1 283 669 "<" "+" "sonaPRP" "g_Floete.wav" "Ente____.bmp" "links___.bmp" "<" 672 0 4 10 2 7 8 3 2 5 5 6 2 1 3 4 7 125 10 284 373 1
"442" 1 283 960 "/" "4" "sonaPRP" "g_Floete.wav" "Ente____.bmp" "links___.bmp" "<" 672 0 4 10 2 7 8 3 2 5 5 6 2 1 3 4 7 125 10 284 373 1
"443" 1 284 802 ">" "+" "sonaPRP" "g_Schaf_.wav" "Esel____.bmp" "rechts__.bmp" ">" 672 500 2 25 1 8 13 3 2 5 1 13 2 1 3 4 8 170 244 25 436 1
"444" 1 284 927 "/" "0" "sonaPRP" "g_Schaf_.wav" "Esel____.bmp" "rechts__.bmp" ">" 672 500 2 25 1 8 13 3 2 5 1 13 2 1 3 4 8 170 244 25 436 1
"445" 1 285 656 ">" "+" "sonaPRP" "g_Pferd_.wav" "Pferd___.bmp" "rechts__.bmp" ">" 672 500 1 23 1 23 12 3 2 5 1 6 2 1 3 4 80 162 23 322 430 1
"446" 1 285 1178 "/" "0" "sonaPRP" "g_Pferd_.wav" "Pferd___.bmp" "rechts__.bmp" ">" 672 500 1 23 1 23 12 3 2 5 1 6 2 1 3 4 80 162 23 322 430 1
"447" 1 286 495 ">" "+" "sonaPRP" "g_Harfe_.wav" "Harfe___.bmp" "rechts__.bmp" ">" 312 500 1 16 1 16 8 3 2 5 5 8 2 1 3 4 61 147 225 16 403 1
"448" 1 286 956 "/" "0" "sonaPRP" "g_Harfe_.wav" "Harfe___.bmp" "rechts__.bmp" ">" 312 500 1 16 1 16 8 3 2 5 5 8 2 1 3 4 61 147 225 16 403 1
"449" 1 287 686 "<" "+" "sonaPRP" "g_Auto__.wav" "Schaf___.bmp" "links___.bmp" "<" 672 0 3 2 2 25 3 3 2 5 2 2 2 1 3 4 2 171 245 25 437 1
"450" 1 287 760 "/" "4" "sonaPRP" "g_Auto__.wav" "Schaf___.bmp" "links___.bmp" "<" 672 0 3 2 2 25 3 3 2 5 2 2 2 1 3 4 2 171 245 25 437 1
"451" 1 288 814 "<" "+" "sonaPRP" "g_Katze_.wav" "Loewe___.bmp" "links___.bmp" "<" 672 500 2 18 1 21 9 3 2 5 1 9 2 1 3 4 66 21 18 312 411 1
"452" 1 288 1121 "/" "0" "sonaPRP" "g_Katze_.wav" "Loewe___.bmp" "links___.bmp" "<" 672 500 2 18 1 21 9 3 2 5 1 9 2 1 3 4 66 21 18 312 411 1
"453" 1 289 609 "<" "+" "sonaPRP" "g_Dudels.wav" "Pferd___.bmp" "links___.bmp" "<" 672 0 3 5 2 23 15 3 2 5 5 4 2 1 3 4 81 5 23 324 432 1
"454" 1 289 1293 "/" "0" "sonaPRP" "g_Dudels.wav" "Pferd___.bmp" "links___.bmp" "<" 672 0 3 5 2 23 15 3 2 5 5 4 2 1 3 4 81 5 23 324 432 1
"455" 1 290 678 ">" "+" "sonaPRP" "g_Tromme.wav" "Saege___.bmp" "rechts__.bmp" ">" 312 0 4 30 2 24 4 3 2 5 5 14 2 1 3 4 86 168 242 24 30 1
"456" 1 290 1469 "/" "0" "sonaPRP" "g_Tromme.wav" "Saege___.bmp" "rechts__.bmp" ">" 312 0 4 30 2 24 4 3 2 5 5 14 2 1 3 4 86 168 242 24 30 1
"457" 1 291 570 ">" "+" "sonaPRP" "g_Ente__.wav" "Hahn____.bmp" "rechts__.bmp" ">" 672 0 2 7 2 14 6 3 2 5 1 5 2 1 3 4 7 14 209 283 371 1
"458" 1 291 1137 "/" "0" "sonaPRP" "g_Ente__.wav" "Hahn____.bmp" "rechts__.bmp" ">" 672 0 2 7 2 14 6 3 2 5 1 5 2 1 3 4 7 14 209 283 371 1
"459" 1 292 507 "<" "+" "sonaPRP" "g_Trompe.wav" "Pferd___.bmp" "links___.bmp" "<" 312 500 4 31 1 23 15 3 2 5 5 14 2 1 3 4 82 164 23 325 31 1
"460" 1 292 1289 "/" "0" "sonaPRP" "g_Trompe.wav" "Pferd___.bmp" "links___.bmp" "<" 312 500 4 31 1 23 15 3 2 5 5 14 2 1 3 4 82 164 23 325 31 1
"461" 1 293 542 "<" "+" "sonaPRP" "g_Schiff.wav" "Esel____.bmp" "links___.bmp" "<" 312 0 4 27 2 8 16 3 2 5 2 13 2 1 3 4 8 128 214 287 27 1
"462" 1 293 1153 "/" "0" "sonaPRP" "g_Schiff.wav" "Esel____.bmp" "links___.bmp" "<" 312 0 4 27 2 8 16 3 2 5 2 13 2 1 3 4 8 128 214 287 27 1
"463" 1 294 603 "<" "+" "sonaPRP" "g_Hammer.wav" "Trompe__.bmp" "links___.bmp" "<" 312 500 4 15 1 31 7 3 2 5 4 8 2 1 3 4 109 190 15 344 31 1
"464" 1 294 960 "/" "0" "sonaPRP" "g_Hammer.wav" "Trompe__.bmp" "links___.bmp" "<" 312 500 4 15 1 31 7 3 2 5 4 8 2 1 3 4 109 190 15 344 31 1
"465" 1 295 640 ">" "+" "sonaPRP" "g_Gitarr.wav" "Gitarr__.bmp" "rechts__.bmp" ">" 672 500 1 12 1 12 4 3 2 5 5 7 2 1 3 4 53 136 12 295 389 1
"466" 1 295 1034 "/" "0" "sonaPRP" "g_Gitarr.wav" "Gitarr__.bmp" "rechts__.bmp" ">" 672 500 1 12 1 12 4 3 2 5 5 7 2 1 3 4 53 136 12 295 389 1
"467" 1 296 566 ">" "+" "sonaPRP" "g_Hahn__.wav" "Klinge__.bmp" "rechts__.bmp" ">" 312 500 3 14 1 19 6 3 2 5 1 8 2 1 3 4 70 14 19 316 416 1
"468" 1 296 1009 "/" "0" "sonaPRP" "g_Hahn__.wav" "Klinge__.bmp" "rechts__.bmp" ">" 312 500 3 14 1 19 6 3 2 5 1 8 2 1 3 4 70 14 19 316 416 1
"469" 1 297 589 ">" "+" "sonaPRP" "g_Schwei.wav" "Elefan__.bmp" "rechts__.bmp" ">" 312 0 2 28 2 6 2 3 2 5 1 13 2 1 3 4 97 6 253 28 440 1
"470" 1 297 1164 "/" "0" "sonaPRP" "g_Schwei.wav" "Elefan__.bmp" "rechts__.bmp" ">" 312 0 2 28 2 6 2 3 2 5 1 13 2 1 3 4 97 6 253 28 440 1
"471" 1 298 701 "<" "+" "sonaPRP" "g_Geige_.wav" "Katze___.bmp" "links___.bmp" "<" 672 0 3 11 2 18 11 3 2 5 5 7 2 1 3 4 67 11 18 313 412 1
"472" 1 298 1587 "/" "0" "sonaPRP" "g_Geige_.wav" "Katze___.bmp" "links___.bmp" "<" 672 0 3 11 2 18 11 3 2 5 5 7 2 1 3 4 67 11 18 313 412 1
"473" 1 299 579 ">" "+" "sonaPRP" "g_Bohrer.wav" "Dudels__.bmp" "rechts__.bmp" ">" 312 0 4 4 2 5 7 3 2 6 4 3 4 2 1 3 4 5 204 278 366 1
"474" 1 299 1703 "/" "0" "sonaPRP" "g_Bohrer.wav" "Dudels__.bmp" "rechts__.bmp" ">" 312 0 4 4 2 5 7 3 2 6 4 3 4 2 1 3 4 5 204 278 366 1
"475" 1 300 708 "<" "+" "sonaPRP" "g_Katze_.wav" "Schiff__.bmp" "links___.bmp" "<" 672 500 3 18 1 27 9 3 2 6 1 9 4 2 1 3 94 178 18 331 27 1
"476" 1 300 898 "/" "0" "sonaPRP" "g_Katze_.wav" "Schiff__.bmp" "links___.bmp" "<" 672 500 3 18 1 27 9 3 2 6 1 9 4 2 1 3 94 178 18 331 27 1
"477" 1 301 710 "<" "+" "sonaPRP" "g_Esel__.wav" "Schaf___.bmp" "links___.bmp" "<" 312 0 2 8 2 25 13 3 2 6 1 5 4 2 1 3 8 127 212 25 375 1
"478" 1 301 1324 "/" "0" "sonaPRP" "g_Esel__.wav" "Schaf___.bmp" "links___.bmp" "<" 312 0 2 8 2 25 13 3 2 6 1 5 4 2 1 3 8 127 212 25 375 1
"479" 1 302 682 ">" "+" "sonaPRP" "g_Dudels.wav" "Staubs__.bmp" "rechts__.bmp" ">" 312 0 4 5 2 29 15 3 2 6 5 4 4 2 1 3 103 5 29 336 445 1
"480" 1 302 1238 "/" "0" "sonaPRP" "g_Dudels.wav" "Staubs__.bmp" "rechts__.bmp" ">" 312 0 4 5 2 29 15 3 2 6 5 4 4 2 1 3 103 5 29 336 445 1
"481" 1 303 762 ">" "+" "sonaPRP" "g_Loewe_.wav" "Katze___.bmp" "rechts__.bmp" ">" 672 0 2 21 2 18 9 3 2 6 1 10 4 2 1 3 75 21 18 319 423 1
"482" 1 303 1320 "/" "0" "sonaPRP" "g_Loewe_.wav" "Katze___.bmp" "rechts__.bmp" ">" 672 0 2 21 2 18 9 3 2 6 1 10 4 2 1 3 75 21 18 319 423 1
"483" 1 304 743 ">" "+" "sonaPRP" "g_Harfe_.wav" "Floete__.bmp" "rechts__.bmp" ">" 672 500 2 16 1 10 8 3 2 6 5 8 4 2 1 3 62 449 10 16 404 1
"484" 1 304 1649 "/" "0" "sonaPRP" "g_Harfe_.wav" "Floete__.bmp" "rechts__.bmp" ">" 672 500 2 16 1 10 8 3 2 6 5 8 4 2 1 3 62 449 10 16 404 1
"485" 1 305 565 "<" "+" "sonaPRP" "g_Elefan.wav" "Fahrra__.bmp" "links___.bmp" "<" 312 500 4 6 1 9 2 3 2 6 1 5 4 2 1 3 46 6 9 290 380 1
"486" 1 305 1066 "/" "0" "sonaPRP" "g_Elefan.wav" "Fahrra__.bmp" "links___.bmp" "<" 312 500 4 6 1 9 2 3 2 6 1 5 4 2 1 3 46 6 9 290 380 1
"487" 1 306 689 "<" "+" "sonaPRP" "g_Geige_.wav" "Hund____.bmp" "links___.bmp" "<" 312 0 4 11 2 17 11 3 2 6 5 7 4 2 1 3 17 11 230 310 409 1
"488" 1 306 1284 "/" "0" "sonaPRP" "g_Geige_.wav" "Hund____.bmp" "links___.bmp" "<" 312 0 4 11 2 17 11 3 2 6 5 7 4 2 1 3 17 11 230 310 409 1
"489" 1 307 724 ">" "+" "sonaPRP" "g_Floete.wav" "Floete__.bmp" "rechts__.bmp" ">" 672 0 1 10 2 10 8 3 2 6 5 6 4 2 1 3 47 132 10 291 381 1
"490" 1 307 2035 "/" "0" "sonaPRP" "g_Floete.wav" "Floete__.bmp" "rechts__.bmp" ">" 672 0 1 10 2 10 8 3 2 6 5 6 4 2 1 3 47 132 10 291 381 1
"491" 1 308 673 ">" "+" "sonaPRP" "g_Schiff.wav" "Schiff__.bmp" "rechts__.bmp" ">" 672 0 1 27 2 27 16 3 2 6 2 13 4 2 1 3 92 177 249 329 27 1
"492" 1 308 1273 "/" "0" "sonaPRP" "g_Schiff.wav" "Schiff__.bmp" "rechts__.bmp" ">" 672 0 1 27 2 27 16 3 2 6 2 13 4 2 1 3 92 177 249 329 27 1
"493" 1 309 555 "<" "+" "sonaPRP" "g_Pferd_.wav" "Hund____.bmp" "links___.bmp" "<" 672 500 2 23 1 17 12 3 2 6 1 6 4 2 1 3 17 163 23 323 431 1
"494" 1 309 1462 "/" "0" "sonaPRP" "g_Pferd_.wav" "Hund____.bmp" "links___.bmp" "<" 672 500 2 23 1 17 12 3 2 6 1 6 4 2 1 3 17 163 23 323 431 1
"495" 1 310 733 "<" "+" "sonaPRP" "g_Klinge.wav" "Glocke__.bmp" "links___.bmp" "<" 312 0 2 19 2 13 5 3 2 6 6 9 4 2 1 3 13 155 19 315 415 1
"496" 1 310 1095 "/" "0" "sonaPRP" "g_Klinge.wav" "Glocke__.bmp" "links___.bmp" "<" 312 0 2 19 2 13 5 3 2 6 6 9 4 2 1 3 13 155 19 315 415 1
"497" 1 311 669 ">" "+" "sonaPRP" "g_Schaf_.wav" "Geige___.bmp" "rechts__.bmp" ">" 672 500 3 25 1 11 13 3 2 6 1 13 4 2 1 3 52 11 217 25 387 1
"498" 1 311 830 "/" "0" "sonaPRP" "g_Schaf_.wav" "Geige___.bmp" "rechts__.bmp" ">" 672 500 3 25 1 11 13 3 2 6 1 13 4 2 1 3 52 11 217 25 387 1
"499" 1 312 499 "<" "+" "sonaPRP" "g_Zug___.wav" "Schiff__.bmp" "links___.bmp" "<" 672 500 2 32 1 27 16 3 2 6 2 15 4 2 1 3 111 32 261 346 27 1
"500" 1 312 1298 "/" "0" "sonaPRP" "g_Zug___.wav" "Schiff__.bmp" "links___.bmp" "<" 672 500 2 32 1 27 16 3 2 6 2 15 4 2 1 3 111 32 261 346 27 1
"501" 1 313 658 ">" "+" "sonaPRP" "g_Orgel_.wav" "Orgel___.bmp" "rechts__.bmp" ">" 672 500 1 22 1 22 11 3 2 6 5 11 4 2 1 3 77 160 236 22 426 1
"502" 1 313 1158 "/" "0" "sonaPRP" "g_Orgel_.wav" "Orgel___.bmp" "rechts__.bmp" ">" 672 500 1 22 1 22 11 3 2 6 5 11 4 2 1 3 77 160 236 22 426 1
"503" 1 314 724 ">" "+" "sonaPRP" "g_Schwei.wav" "Fahrra__.bmp" "rechts__.bmp" ">" 312 0 3 28 2 9 2 3 2 6 1 13 4 2 1 3 45 131 9 28 379 1
"504" 1 314 1523 "/" "0" "sonaPRP" "g_Schwei.wav" "Fahrra__.bmp" "rechts__.bmp" ">" 312 0 3 28 2 9 2 3 2 6 1 13 4 2 1 3 45 131 9 28 379 1
"505" 1 315 672 "<" "+" "sonaPRP" "g_Tromme.wav" "Tromme__.bmp" "links___.bmp" "<" 672 0 1 30 2 30 4 3 2 6 5 14 4 2 1 3 104 184 255 337 30 1
"506" 1 315 1363 "/" "0" "sonaPRP" "g_Tromme.wav" "Tromme__.bmp" "links___.bmp" "<" 672 0 1 30 2 30 4 3 2 6 5 14 4 2 1 3 104 184 255 337 30 1
"507" 1 316 672 "<" "+" "sonaPRP" "g_Glocke.wav" "Schwei__.bmp" "links___.bmp" "<" 672 500 3 13 1 28 5 3 2 6 6 7 4 2 1 3 13 180 254 28 441 1
"508" 1 316 1118 "/" "0" "sonaPRP" "g_Glocke.wav" "Schwei__.bmp" "links___.bmp" "<" 672 500 3 13 1 28 5 3 2 6 6 7 4 2 1 3 13 180 254 28 441 1
"509" 1 317 503 ">" "+" "sonaPRP" "g_Besen_.wav" "Auto____.bmp" "rechts__.bmp" ">" 672 500 3 3 1 2 1 3 2 6 3 3 4 2 1 3 2 3 196 267 354 1
"510" 1 317 812 "/" "0" "sonaPRP" "g_Besen_.wav" "Auto____.bmp" "rechts__.bmp" ">" 672 500 3 3 1 2 1 3 2 6 3 3 4 2 1 3 2 3 196 267 354 1
"511" 1 318 569 ">" "+" "sonaPRP" "g_Fahrra.wav" "Fahrra__.bmp" "rechts__.bmp" ">" 312 500 1 9 1 9 3 3 2 6 2 6 4 2 1 3 44 129 9 288 377 1
"512" 1 318 785 "/" "0" "sonaPRP" "g_Fahrra.wav" "Fahrra__.bmp" "rechts__.bmp" ">" 312 500 1 9 1 9 3 3 2 6 2 6 4 2 1 3 44 129 9 288 377 1
"513" 1 319 616 "<" "+" "sonaPRP" "g_Affe__.wav" "Gitarr__.bmp" "links___.bmp" "<" 672 0 3 1 2 12 10 3 2 6 1 1 4 2 1 3 1 138 12 297 390 1
"514" 1 319 1034 "/" "0" "sonaPRP" "g_Affe__.wav" "Gitarr__.bmp" "links___.bmp" "<" 672 0 3 1 2 12 10 3 2 6 1 1 4 2 1 3 1 138 12 297 390 1
"515" 1 320 567 ">" "+" "sonaPRP" "g_Hahn__.wav" "Orgel___.bmp" "rechts__.bmp" ">" 312 500 4 14 1 22 6 3 2 6 1 8 4 2 1 3 79 14 239 22 429 1
"516" 1 320 1084 "/" "0" "sonaPRP" "g_Hahn__.wav" "Orgel___.bmp" "rechts__.bmp" ">" 312 500 4 14 1 22 6 3 2 6 1 8 4 2 1 3 79 14 239 22 429 1
"517" 1 321 637 "<" "+" "sonaPRP" "g_Staubs.wav" "Besen___.bmp" "links___.bmp" "<" 672 0 2 29 2 3 1 3 2 6 3 13 4 2 1 3 100 3 29 334 444 1
"518" 1 321 1235 "/" "0" "sonaPRP" "g_Staubs.wav" "Besen___.bmp" "links___.bmp" "<" 672 0 2 29 2 3 1 3 2 6 3 13 4 2 1 3 100 3 29 334 444 1
"519" 1 322 644 "<" "+" "sonaPRP" "g_Hammer.wav" "Hammer__.bmp" "links___.bmp" "<" 312 500 1 15 1 15 7 3 2 6 4 8 4 2 1 3 59 143 15 305 399 1
"520" 1 322 849 "/" "0" "sonaPRP" "g_Hammer.wav" "Hammer__.bmp" "links___.bmp" "<" 312 500 1 15 1 15 7 3 2 6 4 8 4 2 1 3 59 143 15 305 399 1
"521" 1 323 673 "<" "+" "sonaPRP" "g_Saege_.wav" "Hahn____.bmp" "links___.bmp" "<" 672 0 3 24 2 14 14 3 2 6 4 12 4 2 1 3 57 14 223 24 398 1
"522" 1 323 1314 "/" "0" "sonaPRP" "g_Saege_.wav" "Hahn____.bmp" "links___.bmp" "<" 672 0 3 24 2 14 14 3 2 6 4 12 4 2 1 3 57 14 223 24 398 1
"523" 1 324 662 ">" "+" "sonaPRP" "g_Kuh___.wav" "Gitarr__.bmp" "rechts__.bmp" ">" 312 500 4 20 1 12 10 3 2 6 1 9 4 2 1 3 55 139 12 20 391 1
"524" 1 324 980 "/" "0" "sonaPRP" "g_Kuh___.wav" "Gitarr__.bmp" "rechts__.bmp" ">" 312 500 4 20 1 12 10 3 2 6 1 9 4 2 1 3 55 139 12 20 391 1
"525" 1 325 551 "<" "+" "sonaPRP" "g_Auto__.wav" "Loewe___.bmp" "links___.bmp" "<" 312 0 4 2 2 21 3 3 2 6 2 2 4 2 1 3 2 21 235 321 425 1
"526" 1 325 1120 "/" "0" "sonaPRP" "g_Auto__.wav" "Loewe___.bmp" "links___.bmp" "<" 312 0 4 2 2 21 3 3 2 6 2 2 4 2 1 3 2 21 235 321 425 1
"527" 1 326 652 "<" "+" "sonaPRP" "g_Ente__.wav" "Orgel___.bmp" "links___.bmp" "<" 312 0 3 7 2 22 6 3 2 6 1 5 4 2 1 3 7 161 238 22 428 1
"528" 1 326 1169 "/" "0" "sonaPRP" "g_Ente__.wav" "Orgel___.bmp" "links___.bmp" "<" 312 0 3 7 2 22 6 3 2 6 1 5 4 2 1 3 7 161 238 22 428 1
"529" 1 327 600 ">" "+" "sonaPRP" "g_Schere.wav" "Hahn____.bmp" "rechts__.bmp" ">" 672 500 4 26 1 14 14 3 2 6 4 13 4 2 1 3 58 14 224 304 26 1
"530" 1 327 803 "/" "0" "sonaPRP" "g_Schere.wav" "Hahn____.bmp" "rechts__.bmp" ">" 672 500 4 26 1 14 14 3 2 6 4 13 4 2 1 3 58 14 224 304 26 1
"531" 1 328 763 "<" "+" "sonaPRP" "g_Trompe.wav" "Trompe__.bmp" "links___.bmp" "<" 312 500 1 31 1 31 15 3 2 6 5 14 4 2 1 3 107 188 257 341 31 1
"532" 1 328 954 "/" "0" "sonaPRP" "g_Trompe.wav" "Trompe__.bmp" "links___.bmp" "<" 312 500 1 31 1 31 15 3 2 6 5 14 4 2 1 3 107 188 257 341 31 1
"533" 1 329 434 ">" "+" "sonaPRP" "g_Gitarr.wav" "Tromme__.bmp" "rechts__.bmp" ">" 312 500 2 12 1 30 4 3 2 6 5 7 4 2 1 3 54 137 12 296 30 1
"534" 1 329 1504 "/" "0" "sonaPRP" "g_Gitarr.wav" "Tromme__.bmp" "rechts__.bmp" ">" 312 500 2 12 1 30 4 3 2 6 5 7 4 2 1 3 54 137 12 296 30 1
"535" 1 330 854 ">" "+" "sonaPRP" "g_Hund__.wav" "Hund____.bmp" "rechts__.bmp" ">" 312 0 1 17 2 17 12 3 2 6 1 8 4 2 1 3 17 149 228 308 406 1
"536" 1 330 1517 "/" "0" "sonaPRP" "g_Hund__.wav" "Hund____.bmp" "rechts__.bmp" ">" 312 0 1 17 2 17 12 3 2 6 1 8 4 2 1 3 17 149 228 308 406 1
"537" 1 333 599 ">" "+" "sonaPRP" "g_Telefo.wav" "Hubsch__.bmp" "rechts__.bmp" ">" 312 0 5 97 9 96 0 0 0 0 6 14 0 0 0 0 480 482 484 486 488 1
"538" 1 333 606 "/" "4" "sonaPRP" "g_Telefo.wav" "Hubsch__.bmp" "rechts__.bmp" ">" 312 0 5 97 9 96 0 0 0 0 6 14 0 0 0 0 480 482 484 486 488 1
"539" 1 334 586 "<" "+" "sonaPRP" "g_Pistol.wav" "Pfeife__.bmp" "links___.bmp" "<" 672 500 6 94 9 93 0 0 0 0 7 16 0 0 0 0 481 483 485 487 489 1
"540" 1 334 1113 "/" "0" "sonaPRP" "g_Pistol.wav" "Pfeife__.bmp" "links___.bmp" "<" 672 500 6 94 9 93 0 0 0 0 7 16 0 0 0 0 481 483 485 487 489 1
"541" 1 335 595 "<" "+" "sonaPRP" "g_Besen_.wav" "Besen___.bmp" "links___.bmp" "<" 672 500 1 3 1 3 1 4 2 7 3 3 1 3 4 2 33 3 197 269 356 1
"542" 1 335 873 "/" "0" "sonaPRP" "g_Besen_.wav" "Besen___.bmp" "links___.bmp" "<" 672 500 1 3 1 3 1 4 2 7 3 3 1 3 4 2 33 3 197 269 356 1
"543" 1 336 601 ">" "+" "sonaPRP" "g_Trompe.wav" "Staubs__.bmp" "rechts__.bmp" ">" 672 500 3 31 1 29 15 4 2 7 5 14 1 3 4 2 101 183 29 335 31 1
"544" 1 336 885 "/" "0" "sonaPRP" "g_Trompe.wav" "Staubs__.bmp" "rechts__.bmp" ">" 672 500 3 31 1 29 15 4 2 7 5 14 1 3 4 2 101 183 29 335 31 1
"545" 1 337 578 ">" "+" "sonaPRP" "g_Esel__.wav" "Geige___.bmp" "rechts__.bmp" ">" 312 0 4 8 2 11 13 4 2 7 1 5 1 3 4 2 8 11 218 294 388 1
"546" 1 337 1235 "/" "0" "sonaPRP" "g_Esel__.wav" "Geige___.bmp" "rechts__.bmp" ">" 312 0 4 8 2 11 13 4 2 7 1 5 1 3 4 2 8 11 218 294 388 1
"547" 1 338 556 "<" "+" "sonaPRP" "g_Orgel_.wav" "Hund____.bmp" "links___.bmp" "<" 312 500 3 22 1 17 11 4 2 7 5 11 1 3 4 2 17 151 229 22 408 1
"548" 1 338 844 "/" "0" "sonaPRP" "g_Orgel_.wav" "Hund____.bmp" "links___.bmp" "<" 312 500 3 22 1 17 11 4 2 7 5 11 1 3 4 2 17 151 229 22 408 1
"549" 1 339 640 "<" "+" "sonaPRP" "g_Glocke.wav" "Glocke__.bmp" "links___.bmp" "<" 312 500 1 13 1 13 5 4 2 7 6 7 1 3 4 2 13 140 219 298 392 1
"550" 1 339 1080 "/" "0" "sonaPRP" "g_Glocke.wav" "Glocke__.bmp" "links___.bmp" "<" 312 500 1 13 1 13 5 4 2 7 6 7 1 3 4 2 13 140 219 298 392 1
"551" 1 340 660 ">" "+" "sonaPRP" "g_Affe__.wav" "Affe____.bmp" "rechts__.bmp" ">" 672 0 1 1 2 1 10 4 2 7 1 1 1 3 4 2 1 113 191 263 349 1
"552" 1 340 1387 "/" "0" "sonaPRP" "g_Affe__.wav" "Affe____.bmp" "rechts__.bmp" ">" 672 0 1 1 2 1 10 4 2 7 1 1 1 3 4 2 1 113 191 263 349 1
"553" 1 341 573 ">" "+" "sonaPRP" "g_Ente__.wav" "Ente____.bmp" "rechts__.bmp" ">" 312 0 1 7 2 7 6 4 2 7 1 5 1 3 4 2 7 123 208 282 370 1
"554" 1 341 1041 "/" "0" "sonaPRP" "g_Ente__.wav" "Ente____.bmp" "rechts__.bmp" ">" 312 0 1 7 2 7 6 4 2 7 1 5 1 3 4 2 7 123 208 282 370 1
"555" 1 342 805 "<" "+" "sonaPRP" "g_Fahrra.wav" "Loewe___.bmp" "links___.bmp" "<" 672 500 3 9 1 21 3 4 2 7 2 6 1 3 4 2 76 21 9 320 424 1
"556" 1 342 949 "/" "0" "sonaPRP" "g_Fahrra.wav" "Loewe___.bmp" "links___.bmp" "<" 672 500 3 9 1 21 3 4 2 7 2 6 1 3 4 2 76 21 9 320 424 1
"557" 1 343 489 ">" "+" "sonaPRP" "g_Staubs.wav" "Auto____.bmp" "rechts__.bmp" ">" 672 0 4 29 2 2 1 4 2 7 3 13 1 3 4 2 2 119 29 268 355 1
"558" 1 343 909 "/" "0" "sonaPRP" "g_Staubs.wav" "Auto____.bmp" "rechts__.bmp" ">" 672 0 4 29 2 2 1 4 2 7 3 13 1 3 4 2 2 119 29 268 355 1
"559" 1 344 510 ">" "+" "sonaPRP" "g_Katze_.wav" "Katze___.bmp" "rechts__.bmp" ">" 312 500 1 18 1 18 9 4 2 7 1 9 1 3 4 2 65 152 18 311 410 1
"560" 1 344 719 "/" "0" "sonaPRP" "g_Katze_.wav" "Katze___.bmp" "rechts__.bmp" ">" 312 500 1 18 1 18 9 4 2 7 1 9 1 3 4 2 65 152 18 311 410 1
"561" 1 345 666 ">" "+" "sonaPRP" "g_Tromme.wav" "Elefan__.bmp" "rechts__.bmp" ">" 312 0 3 30 2 6 4 4 2 7 5 14 1 3 4 2 42 6 207 280 30 1
"562" 1 345 1510 "/" "0" "sonaPRP" "g_Tromme.wav" "Elefan__.bmp" "rechts__.bmp" ">" 312 0 3 30 2 6 4 4 2 7 5 14 1 3 4 2 42 6 207 280 30 1
"563" 1 346 835 "<" "+" "sonaPRP" "g_Hammer.wav" "Dudels__.bmp" "links___.bmp" "<" 312 500 3 15 1 5 7 4 2 7 4 8 1 3 4 2 39 5 15 277 365 1
"564" 1 346 1220 "/" "0" "sonaPRP" "g_Hammer.wav" "Dudels__.bmp" "links___.bmp" "<" 312 500 3 15 1 5 7 4 2 7 4 8 1 3 4 2 39 5 15 277 365 1
"565" 1 347 671 ">" "+" "sonaPRP" "g_Schiff.wav" "Harfe___.bmp" "rechts__.bmp" ">" 672 0 3 27 2 16 16 4 2 7 2 13 1 3 4 2 63 148 226 16 27 1
"566" 1 347 1469 "/" "0" "sonaPRP" "g_Schiff.wav" "Harfe___.bmp" "rechts__.bmp" ">" 672 0 3 27 2 16 16 4 2 7 2 13 1 3 4 2 63 148 226 16 27 1
"567" 1 348 660 ">" "+" "sonaPRP" "g_Dudels.wav" "Trompe__.bmp" "rechts__.bmp" ">" 672 0 2 5 2 31 15 4 2 7 5 4 1 3 4 2 38 5 203 276 31 1
"568" 1 348 1118 "/" "0" "sonaPRP" "g_Dudels.wav" "Trompe__.bmp" "rechts__.bmp" ">" 672 0 2 5 2 31 15 4 2 7 5 4 1 3 4 2 38 5 203 276 31 1
"569" 1 349 621 ">" "+" "sonaPRP" "g_Loewe_.wav" "Schiff__.bmp" "rechts__.bmp" ">" 312 0 4 21 2 27 9 4 2 7 1 10 1 3 4 2 95 21 251 332 27 1
"570" 1 349 1134 "/" "0" "sonaPRP" "g_Loewe_.wav" "Schiff__.bmp" "rechts__.bmp" ">" 312 0 4 21 2 27 9 4 2 7 1 10 1 3 4 2 95 21 251 332 27 1
"571" 1 350 699 "<" "+" "sonaPRP" "g_Schere.wav" "Saege___.bmp" "links___.bmp" "<" 312 500 2 26 1 24 14 4 2 7 4 13 1 3 4 2 90 174 247 24 26 1
"572" 1 350 1001 "/" "0" "sonaPRP" "g_Schere.wav" "Saege___.bmp" "links___.bmp" "<" 312 500 2 26 1 24 14 4 2 7 4 13 1 3 4 2 90 174 247 24 26 1
"573" 1 351 608 ">" "+" "sonaPRP" "g_Kuh___.wav" "Affe____.bmp" "rechts__.bmp" ">" 672 500 2 20 1 1 10 4 2 7 1 9 1 3 4 2 1 158 232 20 419 1
"574" 1 351 969 "/" "0" "sonaPRP" "g_Kuh___.wav" "Affe____.bmp" "rechts__.bmp" ">" 672 500 2 20 1 1 10 4 2 7 1 9 1 3 4 2 1 158 232 20 419 1
"575" 1 352 630 ">" "+" "sonaPRP" "g_Harfe_.wav" "Besen___.bmp" "rechts__.bmp" ">" 672 500 4 16 1 3 8 4 2 7 5 8 1 3 4 2 36 3 198 16 359 1
"576" 1 352 1226 "/" "0" "sonaPRP" "g_Harfe_.wav" "Besen___.bmp" "rechts__.bmp" ">" 672 500 4 16 1 3 8 4 2 7 5 8 1 3 4 2 36 3 198 16 359 1
"577" 1 353 587 "<" "+" "sonaPRP" "g_Saege_.wav" "Saege___.bmp" "links___.bmp" "<" 312 0 1 24 2 24 14 4 2 7 4 12 1 3 4 2 83 165 240 24 433 1
"578" 1 353 1202 "/" "0" "sonaPRP" "g_Saege_.wav" "Saege___.bmp" "links___.bmp" "<" 312 0 1 24 2 24 14 4 2 7 4 12 1 3 4 2 83 165 240 24 433 1
"579" 1 354 644 "<" "+" "sonaPRP" "g_Pferd_.wav" "Zug_____.bmp" "links___.bmp" "<" 672 500 4 23 1 32 12 4 2 7 1 6 1 3 4 2 112 32 23 348 448 1
"580" 1 354 1239 "/" "0" "sonaPRP" "g_Pferd_.wav" "Zug_____.bmp" "links___.bmp" "<" 672 500 4 23 1 32 12 4 2 7 1 6 1 3 4 2 112 32 23 348 448 1
"581" 1 355 607 ">" "+" "sonaPRP" "g_Gitarr.wav" "Elefan__.bmp" "rechts__.bmp" ">" 312 500 4 12 1 6 4 4 2 7 5 7 1 3 4 2 43 6 12 281 369 1
"582" 1 355 1154 "/" "0" "sonaPRP" "g_Gitarr.wav" "Elefan__.bmp" "rechts__.bmp" ">" 312 500 4 12 1 6 4 4 2 7 5 7 1 3 4 2 43 6 12 281 369 1
"583" 1 356 531 ">" "+" "sonaPRP" "g_Floete.wav" "Besen___.bmp" "rechts__.bmp" ">" 312 0 3 10 2 3 8 4 2 7 5 6 1 3 4 2 35 3 10 271 358 1
"584" 1 356 2496 "/" "0" "sonaPRP" "g_Floete.wav" "Besen___.bmp" "rechts__.bmp" ">" 312 0 3 10 2 3 8 4 2 7 5 6 1 3 4 2 35 3 10 271 358 1
"585" 1 357 634 "<" "+" "sonaPRP" "g_Schaf_.wav" "Schaf___.bmp" "links___.bmp" "<" 672 500 1 25 1 25 13 4 2 7 1 13 1 3 4 2 87 169 243 25 435 1
"586" 1 357 756 "/" "0" "sonaPRP" "g_Schaf_.wav" "Schaf___.bmp" "links___.bmp" "<" 672 500 1 25 1 25 13 4 2 7 1 13 1 3 4 2 87 169 243 25 435 1
"587" 1 358 702 "<" "+" "sonaPRP" "g_Klinge.wav" "Schwei__.bmp" "links___.bmp" "<" 672 0 4 19 2 28 5 4 2 7 6 9 1 3 4 2 98 181 19 28 442 1
"588" 1 358 1247 "/" "0" "sonaPRP" "g_Klinge.wav" "Schwei__.bmp" "links___.bmp" "<" 672 0 4 19 2 28 5 4 2 7 6 9 1 3 4 2 98 181 19 28 442 1
"589" 1 359 744 "<" "+" "sonaPRP" "g_Geige_.wav" "Orgel___.bmp" "links___.bmp" "<" 672 0 2 11 2 22 11 4 2 7 5 7 1 3 4 2 51 11 216 22 386 1
"590" 1 359 1619 "/" "0" "sonaPRP" "g_Geige_.wav" "Orgel___.bmp" "links___.bmp" "<" 672 0 2 11 2 22 11 4 2 7 5 7 1 3 4 2 51 11 216 22 386 1
"591" 1 360 623 ">" "+" "sonaPRP" "g_Bohrer.wav" "Hammer__.bmp" "rechts__.bmp" ">" 312 0 2 4 2 15 7 4 2 7 4 3 1 3 4 2 4 121 15 273 361 1
"592" 1 360 1344 "/" "0" "sonaPRP" "g_Bohrer.wav" "Hammer__.bmp" "rechts__.bmp" ">" 312 0 2 4 2 15 7 4 2 7 4 3 1 3 4 2 4 121 15 273 361 1
"593" 1 361 645 "<" "+" "sonaPRP" "g_Hahn__.wav" "Ente____.bmp" "links___.bmp" "<" 312 500 2 14 1 7 6 4 2 7 1 8 1 3 4 2 7 14 222 303 397 1
"594" 1 361 1114 "/" "0" "sonaPRP" "g_Hahn__.wav" "Ente____.bmp" "links___.bmp" "<" 312 500 2 14 1 7 6 4 2 7 1 8 1 3 4 2 7 14 222 303 397 1
"595" 1 362 688 "<" "+" "sonaPRP" "g_Zug___.wav" "Harfe___.bmp" "links___.bmp" "<" 672 500 4 32 1 16 16 4 2 7 2 15 1 3 4 2 64 32 227 16 405 1
"596" 1 362 1228 "/" "0" "sonaPRP" "g_Zug___.wav" "Harfe___.bmp" "links___.bmp" "<" 672 500 4 32 1 16 16 4 2 7 2 15 1 3 4 2 64 32 227 16 405 1
"597" 1 363 644 "<" "+" "sonaPRP" "g_Schwei.wav" "Schwei__.bmp" "links___.bmp" "<" 672 0 1 28 2 28 2 4 2 7 1 13 1 3 4 2 96 179 252 28 439 1
"598" 1 363 1174 "/" "0" "sonaPRP" "g_Schwei.wav" "Schwei__.bmp" "links___.bmp" "<" 672 0 1 28 2 28 2 4 2 7 1 13 1 3 4 2 96 179 252 28 439 1
"599" 1 364 650 ">" "+" "sonaPRP" "g_Auto__.wav" "Fahrra__.bmp" "rechts__.bmp" ">" 672 0 2 2 2 9 3 4 2 7 2 2 1 3 4 2 2 118 9 266 353 1
"600" 1 364 1335 "/" "0" "sonaPRP" "g_Auto__.wav" "Fahrra__.bmp" "rechts__.bmp" ">" 672 0 2 2 2 9 3 4 2 7 2 2 1 3 4 2 2 118 9 266 353 1
"601" 1 365 572 "<" "+" "sonaPRP" "g_Hund__.wav" "Zug_____.bmp" "links___.bmp" "<" 312 0 3 17 2 32 12 4 2 7 1 8 1 3 4 2 17 32 262 347 447 1
"602" 1 365 1198 "/" "0" "sonaPRP" "g_Hund__.wav" "Zug_____.bmp" "links___.bmp" "<" 312 0 3 17 2 32 12 4 2 7 1 8 1 3 4 2 17 32 262 347 447 1
"603" 1 366 657 "<" "+" "sonaPRP" "g_Elefan.wav" "Schwei__.bmp" "links___.bmp" "<" 312 500 2 6 1 28 2 4 2 7 1 5 1 3 4 2 41 6 206 28 368 1
"604" 1 366 1033 "/" "0" "sonaPRP" "g_Elefan.wav" "Schwei__.bmp" "links___.bmp" "<" 312 500 2 6 1 28 2 4 2 7 1 5 1 3 4 2 41 6 206 28 368 1
"605" 1 367 438 "<" "+" "sonaPRP" "g_Klinge.wav" "Schere__.bmp" "links___.bmp" "<" 312 0 3 19 2 26 5 4 2 8 6 9 3 4 2 1 91 175 19 327 26 1
"606" 1 367 1046 "/" "0" "sonaPRP" "g_Klinge.wav" "Schere__.bmp" "links___.bmp" "<" 312 0 3 19 2 26 5 4 2 8 6 9 3 4 2 1 91 175 19 327 26 1
"607" 1 368 702 ">" "+" "sonaPRP" "g_Schaf_.wav" "Hammer__.bmp" "rechts__.bmp" ">" 672 500 4 25 1 15 13 4 2 8 1 13 3 4 2 1 60 146 15 25 402 1
"608" 1 368 1145 "/" "0" "sonaPRP" "g_Schaf_.wav" "Hammer__.bmp" "rechts__.bmp" ">" 672 500 4 25 1 15 13 4 2 8 1 13 3 4 2 1 60 146 15 25 402 1
"609" 1 369 505 ">" "+" "sonaPRP" "g_Ente__.wav" "Klinge__.bmp" "rechts__.bmp" ">" 312 0 4 7 2 19 6 4 2 8 1 5 3 4 2 1 7 156 19 317 417 1
"610" 1 369 1128 "/" "0" "sonaPRP" "g_Ente__.wav" "Klinge__.bmp" "rechts__.bmp" ">" 312 0 4 7 2 19 6 4 2 8 1 5 3 4 2 1 7 156 19 317 417 1
"611" 1 370 710 ">" "+" "sonaPRP" "g_Tromme.wav" "Gitarr__.bmp" "rechts__.bmp" ">" 672 0 2 30 2 12 4 4 2 8 5 14 3 4 2 1 105 185 12 338 30 1
"612" 1 370 1296 "/" "0" "sonaPRP" "g_Tromme.wav" "Gitarr__.bmp" "rechts__.bmp" ">" 672 0 2 30 2 12 4 4 2 8 5 14 3 4 2 1 105 185 12 338 30 1
"613" 1 371 572 "<" "+" "sonaPRP" "g_Floete.wav" "Harfe___.bmp" "links___.bmp" "<" 312 0 2 10 2 16 8 4 2 8 5 6 3 4 2 1 48 133 10 16 382 1
"614" 1 371 2163 "/" "0" "sonaPRP" "g_Floete.wav" "Harfe___.bmp" "links___.bmp" "<" 312 0 2 10 2 16 8 4 2 8 5 6 3 4 2 1 48 133 10 16 382 1
"615" 1 372 760 "<" "+" "sonaPRP" "g_Elefan.wav" "Elefan__.bmp" "links___.bmp" "<" 672 500 1 6 1 6 2 4 2 8 1 5 3 4 2 1 40 6 205 279 367 1
"616" 1 372 784 "/" "0" "sonaPRP" "g_Elefan.wav" "Elefan__.bmp" "links___.bmp" "<" 672 500 1 6 1 6 2 4 2 8 1 5 3 4 2 1 40 6 205 279 367 1
"617" 1 373 666 ">" "+" "sonaPRP" "g_Trompe.wav" "Dudels__.bmp" "rechts__.bmp" ">" 312 500 2 31 1 5 15 4 2 8 5 14 3 4 2 1 108 5 258 342 31 1
"618" 1 373 1590 "/" "0" "sonaPRP" "g_Trompe.wav" "Dudels__.bmp" "rechts__.bmp" ">" 312 500 2 31 1 5 15 4 2 8 5 14 3 4 2 1 108 5 258 342 31 1
"619" 1 374 646 ">" "+" "sonaPRP" "g_Besen_.wav" "Kuh_____.bmp" "rechts__.bmp" ">" 672 500 4 3 1 20 1 4 2 8 3 3 3 4 2 1 73 3 233 20 421 1
"620" 1 374 834 "/" "0" "sonaPRP" "g_Besen_.wav" "Kuh_____.bmp" "rechts__.bmp" ">" 672 500 4 3 1 20 1 4 2 8 3 3 3 4 2 1 73 3 233 20 421 1
"621" 1 375 633 ">" "+" "sonaPRP" "g_Saege_.wav" "Affe____.bmp" "rechts__.bmp" ">" 312 0 4 24 2 1 14 4 2 8 4 12 3 4 2 1 1 116 194 24 351 1
"622" 1 375 1252 "/" "0" "sonaPRP" "g_Saege_.wav" "Affe____.bmp" "rechts__.bmp" ">" 312 0 4 24 2 1 14 4 2 8 4 12 3 4 2 1 1 116 194 24 351 1
"623" 1 376 477 "<" "+" "sonaPRP" "g_Katze_.wav" "Glocke__.bmp" "links___.bmp" "<" 312 500 4 18 1 13 9 4 2 8 1 9 3 4 2 1 13 142 18 301 395 1
"624" 1 376 798 "/" "0" "sonaPRP" "g_Katze_.wav" "Glocke__.bmp" "links___.bmp" "<" 312 500 4 18 1 13 9 4 2 8 1 9 3 4 2 1 13 142 18 301 395 1
"625" 1 377 649 ">" "+" "sonaPRP" "g_Hahn__.wav" "Hahn____.bmp" "rechts__.bmp" ">" 672 500 1 14 1 14 6 4 2 8 1 8 3 4 2 1 56 14 221 302 396 1
"626" 1 377 1000 "/" "0" "sonaPRP" "g_Hahn__.wav" "Hahn____.bmp" "rechts__.bmp" ">" 672 500 1 14 1 14 6 4 2 8 1 8 3 4 2 1 56 14 221 302 396 1
"627" 1 378 543 ">" "+" "sonaPRP" "g_Bohrer.wav" "Bohrer__.bmp" "rechts__.bmp" ">" 312 0 1 4 2 4 7 4 2 8 4 3 3 4 2 1 4 120 199 272 360 1
"628" 1 378 1326 "/" "0" "sonaPRP" "g_Bohrer.wav" "Bohrer__.bmp" "rechts__.bmp" ">" 312 0 1 4 2 4 7 4 2 8 4 3 3 4 2 1 4 120 199 272 360 1
"629" 1 379 716 "<" "+" "sonaPRP" "g_Harfe_.wav" "Ente____.bmp" "links___.bmp" "<" 312 500 3 16 1 7 8 4 2 8 5 8 3 4 2 1 7 124 210 16 372 1
"630" 1 379 1156 "/" "0" "sonaPRP" "g_Harfe_.wav" "Ente____.bmp" "links___.bmp" "<" 312 500 3 16 1 7 8 4 2 8 5 8 3 4 2 1 7 124 210 16 372 1
"631" 1 380 760 "<" "+" "sonaPRP" "g_Loewe_.wav" "Glocke__.bmp" "links___.bmp" "<" 672 0 3 21 2 13 9 4 2 8 1 10 3 4 2 1 13 21 220 300 394 1
"632" 1 380 1321 "/" "0" "sonaPRP" "g_Loewe_.wav" "Glocke__.bmp" "links___.bmp" "<" 672 0 3 21 2 13 9 4 2 8 1 10 3 4 2 1 13 21 220 300 394 1
"633" 1 381 698 "<" "+" "sonaPRP" "g_Geige_.wav" "Geige___.bmp" "links___.bmp" "<" 672 0 1 11 2 11 11 4 2 8 5 7 3 4 2 1 50 11 215 293 385 1
"634" 1 381 1246 "/" "0" "sonaPRP" "g_Geige_.wav" "Geige___.bmp" "links___.bmp" "<" 672 0 1 11 2 11 11 4 2 8 5 7 3 4 2 1 50 11 215 293 385 1
"635" 1 382 593 ">" "+" "sonaPRP" "g_Auto__.wav" "Auto____.bmp" "rechts__.bmp" ">" 672 0 1 2 2 2 3 4 2 8 2 2 3 4 2 1 2 117 195 265 352 1
"636" 1 382 1018 "/" "0" "sonaPRP" "g_Auto__.wav" "Auto____.bmp" "rechts__.bmp" ">" 672 0 1 2 2 2 3 4 2 8 2 2 3 4 2 1 2 117 195 265 352 1
"637" 1 383 560 "<" "+" "sonaPRP" "g_Kuh___.wav" "Kuh_____.bmp" "links___.bmp" "<" 312 500 1 20 1 20 10 4 2 8 1 9 3 4 2 1 71 157 231 20 418 1
"638" 1 383 961 "/" "0" "sonaPRP" "g_Kuh___.wav" "Kuh_____.bmp" "links___.bmp" "<" 312 500 1 20 1 20 10 4 2 8 1 9 3 4 2 1 71 157 231 20 418 1
"639" 1 384 650 "<" "+" "sonaPRP" "g_Hammer.wav" "Bohrer__.bmp" "links___.bmp" "<" 672 500 2 15 1 4 7 4 2 8 4 8 3 4 2 1 4 144 15 306 400 1
"640" 1 384 962 "/" "0" "sonaPRP" "g_Hammer.wav" "Bohrer__.bmp" "links___.bmp" "<" 672 500 2 15 1 4 7 4 2 8 4 8 3 4 2 1 4 144 15 306 400 1
"641" 1 385 556 "<" "+" "sonaPRP" "g_Pferd_.wav" "Tromme__.bmp" "links___.bmp" "<" 672 500 3 23 1 30 12 4 2 8 1 6 3 4 2 1 106 186 23 339 30 1
"642" 1 385 933 "/" "0" "sonaPRP" "g_Pferd_.wav" "Tromme__.bmp" "links___.bmp" "<" 672 500 3 23 1 30 12 4 2 8 1 6 3 4 2 1 106 186 23 339 30 1
"643" 1 386 554 ">" "+" "sonaPRP" "g_Staubs.wav" "Kuh_____.bmp" "rechts__.bmp" ">" 312 0 3 29 2 20 1 4 2 8 3 13 3 4 2 1 72 159 29 20 420 1
"644" 1 386 1098 "/" "0" "sonaPRP" "g_Staubs.wav" "Kuh_____.bmp" "rechts__.bmp" ">" 312 0 3 29 2 20 1 4 2 8 3 13 3 4 2 1 72 159 29 20 420 1
"645" 1 387 631 ">" "+" "sonaPRP" "g_Gitarr.wav" "Saege___.bmp" "rechts__.bmp" ">" 312 500 3 12 1 24 4 4 2 8 5 7 3 4 2 1 85 167 12 24 434 1
"646" 1 387 1306 "/" "0" "sonaPRP" "g_Gitarr.wav" "Saege___.bmp" "rechts__.bmp" ">" 312 500 3 12 1 24 4 4 2 8 5 7 3 4 2 1 85 167 12 24 434 1
"647" 1 388 557 "<" "+" "sonaPRP" "g_Dudels.wav" "Dudels__.bmp" "links___.bmp" "<" 312 0 1 5 2 5 15 4 2 8 5 4 3 4 2 1 37 5 202 275 364 1
"648" 1 388 1095 "/" "0" "sonaPRP" "g_Dudels.wav" "Dudels__.bmp" "links___.bmp" "<" 312 0 1 5 2 5 15 4 2 8 5 4 3 4 2 1 37 5 202 275 364 1
"649" 1 389 749 "<" "+" "sonaPRP" "g_Esel__.wav" "Hammer__.bmp" "links___.bmp" "<" 672 0 3 8 2 15 13 4 2 8 1 5 3 4 2 1 8 145 15 307 401 1
"650" 1 389 1327 "/" "0" "sonaPRP" "g_Esel__.wav" "Hammer__.bmp" "links___.bmp" "<" 672 0 3 8 2 15 13 4 2 8 1 5 3 4 2 1 8 145 15 307 401 1
"651" 1 390 520 ">" "+" "sonaPRP" "g_Schwei.wav" "Bohrer__.bmp" "rechts__.bmp" ">" 312 0 4 28 2 4 2 4 2 8 1 13 3 4 2 1 4 122 201 28 363 1
"652" 1 390 1025 "/" "0" "sonaPRP" "g_Schwei.wav" "Bohrer__.bmp" "rechts__.bmp" ">" 312 0 4 28 2 4 2 4 2 8 1 13 3 4 2 1 4 122 201 28 363 1
"653" 1 391 554 "<" "+" "sonaPRP" "g_Zug___.wav" "Esel____.bmp" "links___.bmp" "<" 672 500 3 32 1 8 16 4 2 8 2 15 3 4 2 1 8 32 213 286 376 1
"654" 1 391 909 "/" "0" "sonaPRP" "g_Zug___.wav" "Esel____.bmp" "links___.bmp" "<" 672 500 3 32 1 8 16 4 2 8 2 15 3 4 2 1 8 32 213 286 376 1
"655" 1 392 584 "<" "+" "sonaPRP" "g_Glocke.wav" "Schere__.bmp" "links___.bmp" "<" 312 500 4 13 1 26 5 4 2 8 6 7 3 4 2 1 13 176 248 328 26 1
"656" 1 392 857 "/" "0" "sonaPRP" "g_Glocke.wav" "Schere__.bmp" "links___.bmp" "<" 312 500 4 13 1 26 5 4 2 8 6 7 3 4 2 1 13 176 248 328 26 1
"657" 1 393 645 ">" "+" "sonaPRP" "g_Affe__.wav" "Floete__.bmp" "rechts__.bmp" ">" 672 0 4 1 2 10 10 4 2 8 1 1 3 4 2 1 1 135 10 292 384 1
"658" 1 393 1169 "/" "0" "sonaPRP" "g_Affe__.wav" "Floete__.bmp" "rechts__.bmp" ">" 672 0 4 1 2 10 10 4 2 8 1 1 3 4 2 1 1 135 10 292 384 1
"659" 1 394 640 ">" "+" "sonaPRP" "g_Hund__.wav" "Pferd___.bmp" "rechts__.bmp" ">" 672 0 2 17 2 23 12 4 2 8 1 8 3 4 2 1 17 150 23 309 407 1
"660" 1 394 1196 "/" "0" "sonaPRP" "g_Hund__.wav" "Pferd___.bmp" "rechts__.bmp" ">" 672 0 2 17 2 23 12 4 2 8 1 8 3 4 2 1 17 150 23 309 407 1
"661" 1 395 652 "<" "+" "sonaPRP" "g_Schere.wav" "Schere__.bmp" "links___.bmp" "<" 312 500 1 26 1 26 14 4 2 8 4 13 3 4 2 1 89 173 246 326 26 1
"662" 1 395 808 "/" "0" "sonaPRP" "g_Schere.wav" "Schere__.bmp" "links___.bmp" "<" 312 500 1 26 1 26 14 4 2 8 4 13 3 4 2 1 89 173 246 326 26 1
"663" 1 396 638 "<" "+" "sonaPRP" "g_Orgel_.wav" "Geige___.bmp" "links___.bmp" "<" 672 500 2 22 1 11 11 4 2 8 5 11 3 4 2 1 78 11 237 22 427 1
"664" 1 396 1264 "/" "0" "sonaPRP" "g_Orgel_.wav" "Geige___.bmp" "links___.bmp" "<" 672 500 2 22 1 11 11 4 2 8 5 11 3 4 2 1 78 11 237 22 427 1
"665" 1 397 631 ">" "+" "sonaPRP" "g_Fahrra.wav" "Auto____.bmp" "rechts__.bmp" ">" 312 500 2 9 1 2 3 4 2 8 2 6 3 4 2 1 2 130 9 289 378 1
"666" 1 397 911 "/" "0" "sonaPRP" "g_Fahrra.wav" "Auto____.bmp" "rechts__.bmp" ">" 312 500 2 9 1 2 3 4 2 8 2 6 3 4 2 1 2 130 9 289 378 1
"667" 1 398 618 ">" "+" "sonaPRP" "g_Schiff.wav" "Zug_____.bmp" "rechts__.bmp" ">" 672 0 2 27 2 32 16 4 2 8 2 13 3 4 2 1 93 32 250 330 27 1
"668" 1 398 1398 "/" "0" "sonaPRP" "g_Schiff.wav" "Zug_____.bmp" "rechts__.bmp" ">" 672 0 2 27 2 32 16 4 2 8 2 13 3 4 2 1 93 32 250 330 27 1
"669" 2 3 619 "/" "0" "sonafam1" "g_Orgel_.wav" "Orgel___.bmp" "w_Orgel_.bmp" "000" 1 22 1 22 0 0 0 5 11 2 NA NA NA NA NA NA NA NA NA NA NA NA
"670" 2 4 3000 "-" "1" "sonafam1" "g_Glocke.wav" "Glocke__.bmp" "w_Glocke.bmp" "000" 1 13 1 13 0 0 0 6 7 2 NA NA NA NA NA NA NA NA NA NA NA NA
"671" 2 5 3000 "-" "1" "sonafam1" "g_Katze_.wav" "Katze___.bmp" "w_Katze_.bmp" "000" 1 18 1 18 0 0 0 1 9 2 NA NA NA NA NA NA NA NA NA NA NA NA
"672" 2 6 425 "/" "0" "sonafam1" "g_Gitarr.wav" "Gitarr__.bmp" "w_Gitarr.bmp" "000" 1 12 1 12 0 0 0 5 7 2 NA NA NA NA NA NA NA NA NA NA NA NA
"673" 2 7 559 "/" "0" "sonafam1" "g_Klinge.wav" "Klinge__.bmp" "w_Klinge.bmp" "000" 1 19 2 19 0 0 0 6 9 2 NA NA NA NA NA NA NA NA NA NA NA NA
"674" 2 8 433 "/" "0" "sonafam1" "g_Grille.wav" "Grille__.bmp" "w_Grille.bmp" "000" 1 91 9 91 0 0 0 1 7 2 NA NA NA NA NA NA NA NA NA NA NA NA
"675" 2 9 414 "/" "0" "sonafam1" "g_Trompe.wav" "Trompe__.bmp" "w_Trompe.bmp" "000" 1 31 1 31 0 0 0 5 14 2 NA NA NA NA NA NA NA NA NA NA NA NA
"676" 2 10 456 "/" "0" "sonafam1" "g_Hahn__.wav" "Hahn____.bmp" "w_Hahn__.bmp" "000" 1 14 1 14 0 0 0 1 8 2 NA NA NA NA NA NA NA NA NA NA NA NA
"677" 2 11 521 "/" "0" "sonafam1" "g_Saege_.wav" "Saege___.bmp" "w_Saege_.bmp" "000" 1 24 2 24 0 0 0 4 12 2 NA NA NA NA NA NA NA NA NA NA NA NA
"678" 2 12 504 "/" "0" "sonafam1" "g_Pfeife.wav" "Pfeife__.bmp" "w_Pfeife.bmp" "000" 1 93 9 93 0 0 0 6 6 2 NA NA NA NA NA NA NA NA NA NA NA NA
"679" 2 13 501 "/" "0" "sonafam1" "g_Affe__.wav" "Affe____.bmp" "w_Affe__.bmp" "000" 1 1 2 1 0 0 0 1 1 2 NA NA NA NA NA NA NA NA NA NA NA NA
"680" 2 14 656 "/" "0" "sonafam1" "g_Toilet.wav" "Toilet__.bmp" "w_Toilet.bmp" "000" 1 95 9 95 0 0 0 8 14 2 NA NA NA NA NA NA NA NA NA NA NA NA
"681" 2 15 365 "/" "0" "sonafam1" "g_Schaf_.wav" "Schaf___.bmp" "w_Schaf_.bmp" "000" 1 25 1 25 0 0 0 1 13 2 NA NA NA NA NA NA NA NA NA NA NA NA
"682" 2 16 415 "/" "0" "sonafam1" "g_Hubsch.wav" "Hubsch__.bmp" "w_Hubsch.bmp" "000" 1 96 9 96 0 0 0 2 8 2 NA NA NA NA NA NA NA NA NA NA NA NA
"683" 2 17 403 "/" "0" "sonafam1" "g_Ente__.wav" "Ente____.bmp" "w_Ente__.bmp" "000" 1 7 2 7 0 0 0 1 5 2 NA NA NA NA NA NA NA NA NA NA NA NA
"684" 2 18 652 "/" "0" "sonafam1" "g_Geige_.wav" "Geige___.bmp" "w_Geige_.bmp" "000" 1 11 2 11 0 0 0 5 7 2 NA NA NA NA NA NA NA NA NA NA NA NA
"685" 2 19 543 "/" "0" "sonafam1" "g_Esel__.wav" "Esel____.bmp" "w_Esel__.bmp" "000" 1 8 2 8 0 0 0 1 5 2 NA NA NA NA NA NA NA NA NA NA NA NA
"686" 2 20 428 "/" "0" "sonafam1" "g_Harfe_.wav" "Harfe___.bmp" "w_Harfe_.bmp" "000" 1 16 1 16 0 0 0 5 8 2 NA NA NA NA NA NA NA NA NA NA NA NA
"687" 2 21 484 "/" "0" "sonafam1" "g_Pferd_.wav" "Pferd___.bmp" "w_Pferd_.bmp" "000" 1 23 1 23 0 0 0 1 6 2 NA NA NA NA NA NA NA NA NA NA NA NA
"688" 2 22 353 "/" "0" "sonafam1" "g_Auto__.wav" "Auto____.bmp" "w_Auto__.bmp" "000" 1 2 2 2 0 0 0 2 2 2 NA NA NA NA NA NA NA NA NA NA NA NA
"689" 2 23 472 "/" "0" "sonafam1" "g_Frosch.wav" "Frosch__.bmp" "w_Frosch.bmp" "000" 1 90 9 90 0 0 0 1 6 2 NA NA NA NA NA NA NA NA NA NA NA NA
"690" 2 24 569 "/" "0" "sonafam1" "g_Dudels.wav" "Dudels__.bmp" "w_Dudels.bmp" "000" 1 5 2 5 0 0 0 5 4 2 NA NA NA NA NA NA NA NA NA NA NA NA
"691" 2 25 385 "/" "3" "sonafam1" "g_Loewe_.wav" "Loewe___.bmp" "w_Loewe_.bmp" "000" 1 21 2 21 0 0 0 1 10 2 NA NA NA NA NA NA NA NA NA NA NA NA
"692" 2 26 530 "/" "0" "sonafam1" "g_Zug___.wav" "Zug_____.bmp" "w_Zug___.bmp" "000" 1 32 1 32 0 0 0 2 15 2 NA NA NA NA NA NA NA NA NA NA NA NA
"693" 2 27 348 "/" "0" "sonafam1" "g_Kuh___.wav" "Kuh_____.bmp" "w_Kuh___.bmp" "000" 1 20 1 20 0 0 0 1 9 2 NA NA NA NA NA NA NA NA NA NA NA NA
"694" 2 28 331 "/" "0" "sonafam1" "g_Telefo.wav" "Telefo__.bmp" "w_Telefo.bmp" "000" 1 97 9 97 0 0 0 6 14 2 NA NA NA NA NA NA NA NA NA NA NA NA
"695" 2 29 331 "/" "0" "sonafam1" "g_Hund__.wav" "Hund____.bmp" "w_Hund__.bmp" "000" 1 17 2 17 0 0 0 1 8 2 NA NA NA NA NA NA NA NA NA NA NA NA
"696" 2 30 379 "/" "0" "sonafam1" "g_Kanone.wav" "Kanone__.bmp" "w_Kanone.bmp" "000" 1 92 9 92 0 0 0 7 9 2 NA NA NA NA NA NA NA NA NA NA NA NA
"697" 2 31 342 "/" "0" "sonafam1" "g_Schwei.wav" "Schwei__.bmp" "w_Schwei.bmp" "000" 1 28 2 28 0 0 0 1 13 2 NA NA NA NA NA NA NA NA NA NA NA NA
"698" 2 32 607 "/" "0" "sonafam1" "g_Tromme.wav" "Tromme__.bmp" "w_Tromme.bmp" "000" 1 30 2 30 0 0 0 5 14 2 NA NA NA NA NA NA NA NA NA NA NA NA
"699" 2 33 407 "/" "0" "sonafam1" "g_Staubs.wav" "Staubs__.bmp" "w_Staubs.bmp" "000" 1 29 2 29 0 0 0 3 13 2 NA NA NA NA NA NA NA NA NA NA NA NA
"700" 2 34 418 "/" "0" "sonafam1" "g_Hammer.wav" "Hammer__.bmp" "w_Hammer.bmp" "000" 1 15 1 15 0 0 0 4 8 2 NA NA NA NA NA NA NA NA NA NA NA NA
"701" 2 35 409 "/" "0" "sonafam1" "g_Schiff.wav" "Schiff__.bmp" "w_Schiff.bmp" "000" 1 27 2 27 0 0 0 2 13 2 NA NA NA NA NA NA NA NA NA NA NA NA
"702" 2 36 525 "/" "0" "sonafam1" "g_Bohrer.wav" "Bohrer__.bmp" "w_Bohrer.bmp" "000" 1 4 2 4 0 0 0 4 3 2 NA NA NA NA NA NA NA NA NA NA NA NA
"703" 2 37 317 "/" "0" "sonafam1" "g_Fahrra.wav" "Fahrra__.bmp" "w_Fahrra.bmp" "000" 1 9 1 9 0 0 0 2 6 2 NA NA NA NA NA NA NA NA NA NA NA NA
"704" 2 38 412 "/" "0" "sonafam1" "g_Besen_.wav" "Besen___.bmp" "w_Besen_.bmp" "000" 1 3 1 3 0 0 0 3 3 2 NA NA NA NA NA NA NA NA NA NA NA NA
"705" 2 39 302 "/" "0" "sonafam1" "g_Schere.wav" "Schere__.bmp" "w_Schere.bmp" "000" 1 26 1 26 0 0 0 4 13 2 NA NA NA NA NA NA NA NA NA NA NA NA
