"subj" "trial" "RT" "BPR_Resp" "ERR.code" "eat" "targ" "dist" "BPR_pic" "BPR_corrResp" "BPR_pos" "BPR_let" "BPR_ver" "BPR_rot" "task.soa" "cond" "targ_ID" "subset" "dist_ID" "sem.pair" "blk" "pl" "occ" "sem.kat" "phon.ons" "LatSq1" "LatSq2" "LatSq3" "LatSq4" "cross.coding1" "cross.coding2" "cross.coding3" "cross.coding4" "cross.coding5" "ver"
"1" 1 3 610 "/" "0" "sonafam1" "g_Orgel_.wav" "Orgel___.bmp" "w_Orgel_.bmp" "000" 1 "22" "1" 22 0 0 0 5 11 1 NA NA NA NA NA NA NA NA NA NA NA NA NA NA NA
"2" 1 4 514 "/" "0" "sonafam1" "g_Glocke.wav" "Glocke__.bmp" "w_Glocke.bmp" "000" 1 "13" "1" 13 0 0 0 6 7 1 NA NA NA NA NA NA NA NA NA NA NA NA NA NA NA
"3" 1 5 530 "/" "0" "sonafam1" "g_Katze_.wav" "Katze___.bmp" "w_Katze_.bmp" "000" 1 "18" "1" 18 0 0 0 1 9 1 NA NA NA NA NA NA NA NA NA NA NA NA NA NA NA
"4" 1 6 471 "/" "0" "sonafam1" "g_Gitarr.wav" "Gitarr__.bmp" "w_Gitarr.bmp" "000" 1 "12" "1" 12 0 0 0 5 7 1 NA NA NA NA NA NA NA NA NA NA NA NA NA NA NA
"5" 1 7 491 "/" "0" "sonafam1" "g_Klinge.wav" "Klinge__.bmp" "w_Klinge.bmp" "000" 1 "19" "2" 19 0 0 0 6 9 1 NA NA NA NA NA NA NA NA NA NA NA NA NA NA NA
"6" 1 8 485 "/" "0" "sonafam1" "g_Grille.wav" "Grille__.bmp" "w_Grille.bmp" "000" 1 "91" "9" 91 0 0 0 1 7 1 NA NA NA NA NA NA NA NA NA NA NA NA NA NA NA
"7" 1 9 357 "/" "0" "sonafam1" "g_Trompe.wav" "Trompe__.bmp" "w_Trompe.bmp" "000" 1 "31" "1" 31 0 0 0 5 14 1 NA NA NA NA NA NA NA NA NA NA NA NA NA NA NA
"8" 1 10 595 "/" "0" "sonafam1" "g_Hahn__.wav" "Hahn____.bmp" "w_Hahn__.bmp" "000" 1 "14" "1" 14 0 0 0 1 8 1 NA NA NA NA NA NA NA NA NA NA NA NA NA NA NA
"9" 1 11 497 "/" "0" "sonafam1" "g_Saege_.wav" "Saege___.bmp" "w_Saege_.bmp" "000" 1 "24" "2" 24 0 0 0 4 12 1 NA NA NA NA NA NA NA NA NA NA NA NA NA NA NA
"10" 1 12 587 "/" "0" "sonafam1" "g_Pfeife.wav" "Pfeife__.bmp" "w_Pfeife.bmp" "000" 1 "93" "9" 93 0 0 0 6 6 1 NA NA NA NA NA NA NA NA NA NA NA NA NA NA NA
"11" 1 13 442 "/" "0" "sonafam1" "g_Affe__.wav" "Affe____.bmp" "w_Affe__.bmp" "000" 1 "01" "2" 1 0 0 0 1 1 1 NA NA NA NA NA NA NA NA NA NA NA NA NA NA NA
"12" 1 14 423 "/" "0" "sonafam1" "g_Toilet.wav" "Toilet__.bmp" "w_Toilet.bmp" "000" 1 "95" "9" 95 0 0 0 8 14 1 NA NA NA NA NA NA NA NA NA NA NA NA NA NA NA
"13" 1 15 263 "/" "3" "sonafam1" "g_Schaf_.wav" "Schaf___.bmp" "w_Schaf_.bmp" "000" 1 "25" "1" 25 0 0 0 1 13 1 NA NA NA NA NA NA NA NA NA NA NA NA NA NA NA
"14" 1 16 429 "/" "3" "sonafam1" "g_Hubsch.wav" "Hubsch__.bmp" "w_Hubsch.bmp" "000" 1 "96" "9" 96 0 0 0 2 8 1 NA NA NA NA NA NA NA NA NA NA NA NA NA NA NA
"15" 1 17 532 "/" "0" "sonafam1" "g_Ente__.wav" "Ente____.bmp" "w_Ente__.bmp" "000" 1 "07" "2" 7 0 0 0 1 5 1 NA NA NA NA NA NA NA NA NA NA NA NA NA NA NA
"16" 1 18 497 "/" "0" "sonafam1" "g_Geige_.wav" "Geige___.bmp" "w_Geige_.bmp" "000" 1 "11" "2" 11 0 0 0 5 7 1 NA NA NA NA NA NA NA NA NA NA NA NA NA NA NA
"17" 1 19 402 "/" "3" "sonafam1" "g_Esel__.wav" "Esel____.bmp" "w_Esel__.bmp" "000" 1 "08" "2" 8 0 0 0 1 5 1 NA NA NA NA NA NA NA NA NA NA NA NA NA NA NA
"18" 1 20 399 "/" "0" "sonafam1" "g_Harfe_.wav" "Harfe___.bmp" "w_Harfe_.bmp" "000" 1 "16" "1" 16 0 0 0 5 8 1 NA NA NA NA NA NA NA NA NA NA NA NA NA NA NA
"19" 1 21 458 "/" "0" "sonafam1" "g_Pferd_.wav" "Pferd___.bmp" "w_Pferd_.bmp" "000" 1 "23" "1" 23 0 0 0 1 6 1 NA NA NA NA NA NA NA NA NA NA NA NA NA NA NA
"20" 1 22 330 "/" "0" "sonafam1" "g_Auto__.wav" "Auto____.bmp" "w_Auto__.bmp" "000" 1 "02" "2" 2 0 0 0 2 2 1 NA NA NA NA NA NA NA NA NA NA NA NA NA NA NA
"21" 1 23 539 "/" "0" "sonafam1" "g_Frosch.wav" "Frosch__.bmp" "w_Frosch.bmp" "000" 1 "90" "9" 90 0 0 0 1 6 1 NA NA NA NA NA NA NA NA NA NA NA NA NA NA NA
"22" 1 24 644 "/" "0" "sonafam1" "g_Dudels.wav" "Dudels__.bmp" "w_Dudels.bmp" "000" 1 "05" "2" 5 0 0 0 5 4 1 NA NA NA NA NA NA NA NA NA NA NA NA NA NA NA
"23" 1 25 372 "/" "0" "sonafam1" "g_Loewe_.wav" "Loewe___.bmp" "w_Loewe_.bmp" "000" 1 "21" "2" 21 0 0 0 1 10 1 NA NA NA NA NA NA NA NA NA NA NA NA NA NA NA
"24" 1 26 650 "/" "0" "sonafam1" "g_Zug___.wav" "Zug_____.bmp" "w_Zug___.bmp" "000" 1 "32" "1" 32 0 0 0 2 15 1 NA NA NA NA NA NA NA NA NA NA NA NA NA NA NA
"25" 1 27 450 "/" "0" "sonafam1" "g_Kuh___.wav" "Kuh_____.bmp" "w_Kuh___.bmp" "000" 1 "20" "1" 20 0 0 0 1 9 1 NA NA NA NA NA NA NA NA NA NA NA NA NA NA NA
"26" 1 28 387 "/" "0" "sonafam1" "g_Telefo.wav" "Telefo__.bmp" "w_Telefo.bmp" "000" 1 "97" "9" 97 0 0 0 6 14 1 NA NA NA NA NA NA NA NA NA NA NA NA NA NA NA
"27" 1 29 442 "/" "0" "sonafam1" "g_Hund__.wav" "Hund____.bmp" "w_Hund__.bmp" "000" 1 "17" "2" 17 0 0 0 1 8 1 NA NA NA NA NA NA NA NA NA NA NA NA NA NA NA
"28" 1 30 372 "/" "0" "sonafam1" "g_Kanone.wav" "Kanone__.bmp" "w_Kanone.bmp" "000" 1 "92" "9" 92 0 0 0 7 9 1 NA NA NA NA NA NA NA NA NA NA NA NA NA NA NA
"29" 1 31 295 "/" "0" "sonafam1" "g_Schwei.wav" "Schwei__.bmp" "w_Schwei.bmp" "000" 1 "28" "2" 28 0 0 0 1 13 1 NA NA NA NA NA NA NA NA NA NA NA NA NA NA NA
"30" 1 32 558 "/" "0" "sonafam1" "g_Tromme.wav" "Tromme__.bmp" "w_Tromme.bmp" "000" 1 "30" "2" 30 0 0 0 5 14 1 NA NA NA NA NA NA NA NA NA NA NA NA NA NA NA
"31" 1 33 682 "/" "0" "sonafam1" "g_Staubs.wav" "Staubs__.bmp" "w_Staubs.bmp" "000" 1 "29" "2" 29 0 0 0 3 13 1 NA NA NA NA NA NA NA NA NA NA NA NA NA NA NA
"32" 1 34 277 "/" "3" "sonafam1" "g_Hammer.wav" "Hammer__.bmp" "w_Hammer.bmp" "000" 1 "15" "1" 15 0 0 0 4 8 1 NA NA NA NA NA NA NA NA NA NA NA NA NA NA NA
"33" 1 35 585 "/" "0" "sonafam1" "g_Schiff.wav" "Schiff__.bmp" "w_Schiff.bmp" "000" 1 "27" "2" 27 0 0 0 2 13 1 NA NA NA NA NA NA NA NA NA NA NA NA NA NA NA
"34" 1 36 537 "/" "0" "sonafam1" "g_Bohrer.wav" "Bohrer__.bmp" "w_Bohrer.bmp" "000" 1 "04" "2" 4 0 0 0 4 3 1 NA NA NA NA NA NA NA NA NA NA NA NA NA NA NA
"35" 1 37 406 "/" "0" "sonafam1" "g_Fahrra.wav" "Fahrra__.bmp" "w_Fahrra.bmp" "000" 1 "09" "1" 9 0 0 0 2 6 1 NA NA NA NA NA NA NA NA NA NA NA NA NA NA NA
"36" 1 38 447 "/" "0" "sonafam1" "g_Besen_.wav" "Besen___.bmp" "w_Besen_.bmp" "000" 1 "03" "1" 3 0 0 0 3 3 1 NA NA NA NA NA NA NA NA NA NA NA NA NA NA NA
"37" 1 39 250 "/" "3" "sonafam1" "g_Schere.wav" "Schere__.bmp" "w_Schere.bmp" "000" 1 "26" "1" 26 0 0 0 4 13 1 NA NA NA NA NA NA NA NA NA NA NA NA NA NA NA
"38" 1 40 674 "/" "0" "sonafam1" "g_Pistol.wav" "Pistol__.bmp" "w_Pistol.bmp" "000" 1 "94" "9" 94 0 0 0 7 16 1 NA NA NA NA NA NA NA NA NA NA NA NA NA NA NA
"39" 1 41 721 "/" "0" "sonafam1" "g_Floete.wav" "Floete__.bmp" "w_Floete.bmp" "000" 1 "10" "2" 10 0 0 0 5 6 1 NA NA NA NA NA NA NA NA NA NA NA NA NA NA NA
"40" 1 42 664 "/" "0" "sonafam1" "g_Elefan.wav" "Elefan__.bmp" "w_Elefan.bmp" "000" 1 "06" "1" 6 0 0 0 1 5 1 NA NA NA NA NA NA NA NA NA NA NA NA NA NA NA
"41" 1 45 684 "/" "0" "sonafam2" "g_Trompe.wav" "Trompe__.bmp" "w_______.bmp" "000" 1 "31" "1" 31 0 0 0 5 14 1 NA NA NA NA NA NA NA NA NA NA NA NA NA NA NA
"42" 1 46 499 "/" "0" "sonafam2" "g_Schaf_.wav" "Schaf___.bmp" "w_______.bmp" "000" 1 "25" "1" 25 0 0 0 1 13 1 NA NA NA NA NA NA NA NA NA NA NA NA NA NA NA
"43" 1 47 475 "/" "0" "sonafam2" "g_Fahrra.wav" "Fahrra__.bmp" "w_______.bmp" "000" 1 "09" "1" 9 0 0 0 2 6 1 NA NA NA NA NA NA NA NA NA NA NA NA NA NA NA
"44" 1 48 885 "/" "0" "sonafam2" "g_Toilet.wav" "Toilet__.bmp" "w_______.bmp" "000" 1 "95" "9" 95 0 0 0 8 14 1 NA NA NA NA NA NA NA NA NA NA NA NA NA NA NA
"45" 1 49 730 "/" "0" "sonafam2" "g_Gitarr.wav" "Gitarr__.bmp" "w_______.bmp" "000" 1 "12" "1" 12 0 0 0 5 7 1 NA NA NA NA NA NA NA NA NA NA NA NA NA NA NA
"46" 1 50 2470 "/" "1" "sonafam2" "g_Esel__.wav" "Esel____.bmp" "w_______.bmp" "000" 1 "08" "2" 8 0 0 0 1 5 1 NA NA NA NA NA NA NA NA NA NA NA NA NA NA NA
"47" 1 51 1401 "/" "0" "sonafam2" "g_Tromme.wav" "Tromme__.bmp" "w_______.bmp" "000" 1 "30" "2" 30 0 0 0 5 14 1 NA NA NA NA NA NA NA NA NA NA NA NA NA NA NA
"48" 1 52 701 "/" "0" "sonafam2" "g_Auto__.wav" "Auto____.bmp" "w_______.bmp" "000" 1 "02" "2" 2 0 0 0 2 2 1 NA NA NA NA NA NA NA NA NA NA NA NA NA NA NA
"49" 1 53 968 "/" "0" "sonafam2" "g_Orgel_.wav" "Orgel___.bmp" "w_______.bmp" "000" 1 "22" "1" 22 0 0 0 5 11 1 NA NA NA NA NA NA NA NA NA NA NA NA NA NA NA
"50" 1 54 678 "/" "0" "sonafam2" "g_Loewe_.wav" "Loewe___.bmp" "w_______.bmp" "000" 1 "21" "2" 21 0 0 0 1 10 1 NA NA NA NA NA NA NA NA NA NA NA NA NA NA NA
"51" 1 55 965 "/" "0" "sonafam2" "g_Pistol.wav" "Pistol__.bmp" "w_______.bmp" "000" 1 "94" "9" 94 0 0 0 7 16 1 NA NA NA NA NA NA NA NA NA NA NA NA NA NA NA
"52" 1 56 935 "/" "0" "sonafam2" "g_Ente__.wav" "Ente____.bmp" "w_______.bmp" "000" 1 "07" "2" 7 0 0 0 1 5 1 NA NA NA NA NA NA NA NA NA NA NA NA NA NA NA
"53" 1 57 720 "/" "0" "sonafam2" "g_Telefo.wav" "Telefo__.bmp" "w_______.bmp" "000" 1 "97" "9" 97 0 0 0 6 14 1 NA NA NA NA NA NA NA NA NA NA NA NA NA NA NA
"54" 1 58 640 "/" "0" "sonafam2" "g_Hund__.wav" "Hund____.bmp" "w_______.bmp" "000" 1 "17" "2" 17 0 0 0 1 8 1 NA NA NA NA NA NA NA NA NA NA NA NA NA NA NA
"55" 1 59 868 "/" "0" "sonafam2" "g_Saege_.wav" "Saege___.bmp" "w_______.bmp" "000" 1 "24" "2" 24 0 0 0 4 12 1 NA NA NA NA NA NA NA NA NA NA NA NA NA NA NA
"56" 1 60 662 "/" "0" "sonafam2" "g_Elefan.wav" "Elefan__.bmp" "w_______.bmp" "000" 1 "06" "1" 6 0 0 0 1 5 1 NA NA NA NA NA NA NA NA NA NA NA NA NA NA NA
"57" 1 61 888 "/" "0" "sonafam2" "g_Pfeife.wav" "Pfeife__.bmp" "w_______.bmp" "000" 1 "93" "9" 93 0 0 0 6 6 1 NA NA NA NA NA NA NA NA NA NA NA NA NA NA NA
"58" 1 62 1141 "/" "0" "sonafam2" "g_Hahn__.wav" "Hahn____.bmp" "w_______.bmp" "000" 1 "14" "1" 14 0 0 0 1 8 1 NA NA NA NA NA NA NA NA NA NA NA NA NA NA NA
"59" 1 63 783 "/" "0" "sonafam2" "g_Staubs.wav" "Staubs__.bmp" "w_______.bmp" "000" 1 "29" "2" 29 0 0 0 3 13 1 NA NA NA NA NA NA NA NA NA NA NA NA NA NA NA
"60" 1 64 909 "/" "0" "sonafam2" "g_Kuh___.wav" "Kuh_____.bmp" "w_______.bmp" "000" 1 "20" "1" 20 0 0 0 1 9 1 NA NA NA NA NA NA NA NA NA NA NA NA NA NA NA
"61" 1 65 1094 "/" "0" "sonafam2" "g_Zug___.wav" "Zug_____.bmp" "w_______.bmp" "000" 1 "32" "1" 32 0 0 0 2 15 1 NA NA NA NA NA NA NA NA NA NA NA NA NA NA NA
"62" 1 66 1119 "/" "0" "sonafam2" "g_Schwei.wav" "Schwei__.bmp" "w_______.bmp" "000" 1 "28" "2" 28 0 0 0 1 13 1 NA NA NA NA NA NA NA NA NA NA NA NA NA NA NA
"63" 1 67 946 "/" "0" "sonafam2" "g_Dudels.wav" "Dudels__.bmp" "w_______.bmp" "000" 1 "05" "2" 5 0 0 0 5 4 1 NA NA NA NA NA NA NA NA NA NA NA NA NA NA NA
"64" 1 68 750 "/" "0" "sonafam2" "g_Affe__.wav" "Affe____.bmp" "w_______.bmp" "000" 1 "01" "2" 1 0 0 0 1 1 1 NA NA NA NA NA NA NA NA NA NA NA NA NA NA NA
"65" 1 69 814 "/" "0" "sonafam2" "g_Floete.wav" "Floete__.bmp" "w_______.bmp" "000" 1 "10" "2" 10 0 0 0 5 6 1 NA NA NA NA NA NA NA NA NA NA NA NA NA NA NA
"66" 1 70 769 "/" "0" "sonafam2" "g_Katze_.wav" "Katze___.bmp" "w_______.bmp" "000" 1 "18" "1" 18 0 0 0 1 9 1 NA NA NA NA NA NA NA NA NA NA NA NA NA NA NA
"67" 1 71 906 "/" "0" "sonafam2" "g_Hubsch.wav" "Hubsch__.bmp" "w_______.bmp" "000" 1 "96" "9" 96 0 0 0 2 8 1 NA NA NA NA NA NA NA NA NA NA NA NA NA NA NA
"68" 1 72 955 "/" "0" "sonafam2" "g_Geige_.wav" "Geige___.bmp" "w_______.bmp" "000" 1 "11" "2" 11 0 0 0 5 7 1 NA NA NA NA NA NA NA NA NA NA NA NA NA NA NA
"69" 1 73 930 "/" "0" "sonafam2" "g_Schiff.wav" "Schiff__.bmp" "w_______.bmp" "000" 1 "27" "2" 27 0 0 0 2 13 1 NA NA NA NA NA NA NA NA NA NA NA NA NA NA NA
"70" 1 74 776 "/" "0" "sonafam2" "g_Harfe_.wav" "Harfe___.bmp" "w_______.bmp" "000" 1 "16" "1" 16 0 0 0 5 8 1 NA NA NA NA NA NA NA NA NA NA NA NA NA NA NA
"71" 1 75 1237 "/" "0" "sonafam2" "g_Klinge.wav" "Klinge__.bmp" "w_______.bmp" "000" 1 "19" "2" 19 0 0 0 6 9 1 NA NA NA NA NA NA NA NA NA NA NA NA NA NA NA
"72" 1 76 711 "/" "0" "sonafam2" "g_Besen_.wav" "Besen___.bmp" "w_______.bmp" "000" 1 "03" "1" 3 0 0 0 3 3 1 NA NA NA NA NA NA NA NA NA NA NA NA NA NA NA
"73" 1 77 666 "/" "0" "sonafam2" "g_Glocke.wav" "Glocke__.bmp" "w_______.bmp" "000" 1 "13" "1" 13 0 0 0 6 7 1 NA NA NA NA NA NA NA NA NA NA NA NA NA NA NA
"74" 1 78 924 "/" "0" "sonafam2" "g_Frosch.wav" "Frosch__.bmp" "w_______.bmp" "000" 1 "90" "9" 90 0 0 0 1 6 1 NA NA NA NA NA NA NA NA NA NA NA NA NA NA NA
"75" 1 79 701 "/" "0" "sonafam2" "g_Schere.wav" "Schere__.bmp" "w_______.bmp" "000" 1 "26" "1" 26 0 0 0 4 13 1 NA NA NA NA NA NA NA NA NA NA NA NA NA NA NA
"76" 1 80 995 "/" "0" "sonafam2" "g_Grille.wav" "Grille__.bmp" "w_______.bmp" "000" 1 "91" "9" 91 0 0 0 1 7 1 NA NA NA NA NA NA NA NA NA NA NA NA NA NA NA
"77" 1 81 691 "/" "0" "sonafam2" "g_Bohrer.wav" "Bohrer__.bmp" "w_______.bmp" "000" 1 "04" "2" 4 0 0 0 4 3 1 NA NA NA NA NA NA NA NA NA NA NA NA NA NA NA
"78" 1 82 1423 "/" "0" "sonafam2" "g_Kanone.wav" "Kanone__.bmp" "w_______.bmp" "000" 1 "92" "9" 92 0 0 0 7 9 1 NA NA NA NA NA NA NA NA NA NA NA NA NA NA NA
"79" 1 83 817 "/" "0" "sonafam2" "g_Hammer.wav" "Hammer__.bmp" "w_______.bmp" "000" 1 "15" "1" 15 0 0 0 4 8 1 NA NA NA NA NA NA NA NA NA NA NA NA NA NA NA
"80" 1 84 906 "/" "0" "sonafam2" "g_Pferd_.wav" "Pferd___.bmp" "w_______.bmp" "000" 1 "23" "1" 23 0 0 0 1 6 1 NA NA NA NA NA NA NA NA NA NA NA NA NA NA NA
"81" 1 87 1722 "<" "+" "sonaPRP" "Silence_.wav" "blank___.bmp" "B_g_150_.bmp" "<" 277 "B" "gesp" 150 0 0 99 9 99 0 0 0 0 0 1 NA NA NA NA NA NA NA NA NA NA
"82" 1 87 1726 "/" "-" "sonaPRP" "Silence_.wav" "blank___.bmp" "B_g_150_.bmp" "<" 277 "B" "gesp" 150 0 0 99 9 99 0 0 0 0 0 1 NA NA NA NA NA NA NA NA NA NA
"83" 1 88 1186 ">" "+" "sonaPRP" "Silence_.wav" "blank___.bmp" "Q_n_210_.bmp" ">" 672 "Q" "norm" 210 0 0 99 9 99 0 0 0 0 0 1 NA NA NA NA NA NA NA NA NA NA
"84" 1 88 1190 "/" "-" "sonaPRP" "Silence_.wav" "blank___.bmp" "Q_n_210_.bmp" ">" 672 "Q" "norm" 210 0 0 99 9 99 0 0 0 0 0 1 NA NA NA NA NA NA NA NA NA NA
"85" 1 89 1179 ">" "+" "sonaPRP" "Silence_.wav" "blank___.bmp" "L_n_210_.bmp" ">" 672 "L" "norm" 210 0 0 99 9 99 0 0 0 0 0 1 NA NA NA NA NA NA NA NA NA NA
"86" 1 89 3000 "-" "0" "sonaPRP" "Silence_.wav" "blank___.bmp" "L_n_210_.bmp" ">" 672 "L" "norm" 210 0 0 99 9 99 0 0 0 0 0 1 NA NA NA NA NA NA NA NA NA NA
"87" 1 90 905 "<" "+" "sonaPRP" "Silence_.wav" "blank___.bmp" "Z_g_150_.bmp" "<" 277 "Z" "gesp" 150 0 0 99 9 99 0 0 0 0 0 1 NA NA NA NA NA NA NA NA NA NA
"88" 1 90 3000 "-" "0" "sonaPRP" "Silence_.wav" "blank___.bmp" "Z_g_150_.bmp" "<" 277 "Z" "gesp" 150 0 0 99 9 99 0 0 0 0 0 1 NA NA NA NA NA NA NA NA NA NA
"89" 1 91 1039 ">" "+" "sonaPRP" "Silence_.wav" "blank___.bmp" "B_n_210_.bmp" ">" 672 "B" "norm" 210 0 0 99 9 99 0 0 0 0 0 1 NA NA NA NA NA NA NA NA NA NA
"90" 1 91 3000 "-" "0" "sonaPRP" "Silence_.wav" "blank___.bmp" "B_n_210_.bmp" ">" 672 "B" "norm" 210 0 0 99 9 99 0 0 0 0 0 1 NA NA NA NA NA NA NA NA NA NA
"91" 1 92 800 "<" "+" "sonaPRP" "Silence_.wav" "blank___.bmp" "K_g_210_.bmp" "<" 277 "K" "gesp" 210 0 0 99 9 99 0 0 0 0 0 1 NA NA NA NA NA NA NA NA NA NA
"92" 1 92 3000 "-" "0" "sonaPRP" "Silence_.wav" "blank___.bmp" "K_g_210_.bmp" "<" 277 "K" "gesp" 210 0 0 99 9 99 0 0 0 0 0 1 NA NA NA NA NA NA NA NA NA NA
"93" 1 93 1108 "<" "+" "sonaPRP" "Silence_.wav" "blank___.bmp" "L_g_150_.bmp" "<" 277 "L" "gesp" 150 0 0 99 9 99 0 0 0 0 0 1 NA NA NA NA NA NA NA NA NA NA
"94" 1 93 3000 "-" "0" "sonaPRP" "Silence_.wav" "blank___.bmp" "L_g_150_.bmp" "<" 277 "L" "gesp" 150 0 0 99 9 99 0 0 0 0 0 1 NA NA NA NA NA NA NA NA NA NA
"95" 1 94 1175 ">" "+" "sonaPRP" "Silence_.wav" "blank___.bmp" "F_n_150_.bmp" ">" 672 "F" "norm" 150 0 0 99 9 99 0 0 0 0 0 1 NA NA NA NA NA NA NA NA NA NA
"96" 1 94 3000 "-" "0" "sonaPRP" "Silence_.wav" "blank___.bmp" "F_n_150_.bmp" ">" 672 "F" "norm" 150 0 0 99 9 99 0 0 0 0 0 1 NA NA NA NA NA NA NA NA NA NA
"97" 1 95 1483 "<" "+" "sonaPRP" "Silence_.wav" "blank___.bmp" "G_g_210_.bmp" "<" 672 "G" "gesp" 210 0 0 99 9 99 0 0 0 0 0 1 NA NA NA NA NA NA NA NA NA NA
"98" 1 95 3000 "-" "0" "sonaPRP" "Silence_.wav" "blank___.bmp" "G_g_210_.bmp" "<" 672 "G" "gesp" 210 0 0 99 9 99 0 0 0 0 0 1 NA NA NA NA NA NA NA NA NA NA
"99" 1 96 1189 ">" "+" "sonaPRP" "Silence_.wav" "blank___.bmp" "K_n_150_.bmp" ">" 672 "K" "norm" 150 0 0 99 9 99 0 0 0 0 0 1 NA NA NA NA NA NA NA NA NA NA
"100" 1 96 3000 "-" "0" "sonaPRP" "Silence_.wav" "blank___.bmp" "K_n_150_.bmp" ">" 672 "K" "norm" 150 0 0 99 9 99 0 0 0 0 0 1 NA NA NA NA NA NA NA NA NA NA
"101" 1 97 1474 ">" "+" "sonaPRP" "Silence_.wav" "blank___.bmp" "P_n_210_.bmp" ">" 277 "P" "norm" 210 0 0 99 9 99 0 0 0 0 0 1 NA NA NA NA NA NA NA NA NA NA
"102" 1 97 3000 "-" "0" "sonaPRP" "Silence_.wav" "blank___.bmp" "P_n_210_.bmp" ">" 277 "P" "norm" 210 0 0 99 9 99 0 0 0 0 0 1 NA NA NA NA NA NA NA NA NA NA
"103" 1 98 934 "<" "+" "sonaPRP" "Silence_.wav" "blank___.bmp" "Q_g_150_.bmp" "<" 277 "Q" "gesp" 150 0 0 99 9 99 0 0 0 0 0 1 NA NA NA NA NA NA NA NA NA NA
"104" 1 98 3000 "-" "0" "sonaPRP" "Silence_.wav" "blank___.bmp" "Q_g_150_.bmp" "<" 277 "Q" "gesp" 150 0 0 99 9 99 0 0 0 0 0 1 NA NA NA NA NA NA NA NA NA NA
"105" 1 101 1364 "/" "0" "sonaPRP" "g_Pfeife.wav" "Hubsch__.bmp" "blank___.bmp" "-" 0 "000" "000000" 0 0 6 93 9 96 0 0 0 6 6 1 NA NA NA NA NA NA NA NA NA NA
"106" 1 102 703 "/" "0" "sonaPRP" "g_Toilet.wav" "Toilet__.bmp" "blank___.bmp" "-" 0 "000" "000000" 0 0 1 95 9 95 0 0 0 8 14 1 NA NA NA NA NA NA NA NA NA NA
"107" 1 103 865 "/" "5" "sonaPRP" "g_Grille.wav" "Kanone__.bmp" "blank___.bmp" "-" 0 "000" "000000" 0 0 6 91 9 92 0 0 0 1 7 1 NA NA NA NA NA NA NA NA NA NA
"108" 1 104 1513 "/" "1" "sonaPRP" "g_Frosch.wav" "Hubsch__.bmp" "blank___.bmp" "-" 0 "000" "000000" 0 0 3 90 9 96 0 0 0 1 6 1 NA NA NA NA NA NA NA NA NA NA
"109" 1 105 958 "/" "0" "sonaPRP" "g_Telefo.wav" "Telefo__.bmp" "blank___.bmp" "-" 0 "000" "000000" 0 0 1 97 9 97 0 0 0 6 14 1 NA NA NA NA NA NA NA NA NA NA
"110" 1 106 1126 "/" "0" "sonaPRP" "g_Kanone.wav" "Frosch__.bmp" "blank___.bmp" "-" 0 "000" "000000" 0 0 5 92 9 90 0 0 0 7 9 1 NA NA NA NA NA NA NA NA NA NA
"111" 1 107 853 "/" "3" "sonaPRP" "g_Toilet.wav" "Grille__.bmp" "blank___.bmp" "-" 0 "000" "000000" 0 0 3 95 9 91 0 0 0 8 14 1 NA NA NA NA NA NA NA NA NA NA
"112" 1 108 873 "/" "0" "sonaPRP" "g_Pfeife.wav" "Pistol__.bmp" "blank___.bmp" "-" 0 "000" "000000" 0 0 3 93 9 94 0 0 0 6 6 1 NA NA NA NA NA NA NA NA NA NA
"113" 1 109 903 "/" "0" "sonaPRP" "g_Telefo.wav" "Telefo__.bmp" "blank___.bmp" "-" 0 "000" "000000" 0 0 1 97 9 97 0 0 0 6 14 1 NA NA NA NA NA NA NA NA NA NA
"114" 1 110 1310 "/" "0" "sonaPRP" "g_Grille.wav" "Pistol__.bmp" "blank___.bmp" "-" 0 "000" "000000" 0 0 5 91 9 94 0 0 0 1 7 1 NA NA NA NA NA NA NA NA NA NA
"115" 1 111 972 "/" "0" "sonaPRP" "g_Frosch.wav" "Telefo__.bmp" "blank___.bmp" "-" 0 "000" "000000" 0 0 6 90 9 97 0 0 0 1 6 1 NA NA NA NA NA NA NA NA NA NA
"116" 1 112 916 "/" "0" "sonaPRP" "g_Hubsch.wav" "Grille__.bmp" "blank___.bmp" "-" 0 "000" "000000" 0 0 5 96 9 91 0 0 0 2 8 1 NA NA NA NA NA NA NA NA NA NA
"117" 1 115 1154 "<" "-" "sonaPRP" "g_Toilet.wav" "Grille__.bmp" "Z_n_210_.bmp" ">" 672 "Z" "norm" 210 0 3 95 9 91 0 0 0 8 14 1 NA NA NA NA NA NA NA NA NA NA
"118" 1 115 3000 "-" "4" "sonaPRP" "g_Toilet.wav" "Grille__.bmp" "Z_n_210_.bmp" ">" 672 "Z" "norm" 210 0 3 95 9 91 0 0 0 8 14 1 NA NA NA NA NA NA NA NA NA NA
"119" 1 116 1505 "<" "+" "sonaPRP" "g_Hubsch.wav" "Pfeife__.bmp" "K_g_210_.bmp" "<" 672 "K" "gesp" 210 0 3 96 9 93 0 0 0 2 8 1 NA NA NA NA NA NA NA NA NA NA
"120" 1 116 2450 "/" "0" "sonaPRP" "g_Hubsch.wav" "Pfeife__.bmp" "K_g_210_.bmp" "<" 672 "K" "gesp" 210 0 3 96 9 93 0 0 0 2 8 1 NA NA NA NA NA NA NA NA NA NA
"121" 1 117 1098 ">" "-" "sonaPRP" "g_Grille.wav" "Grille__.bmp" "F_g_150_.bmp" "<" 277 "F" "gesp" 150 1500 1 91 9 91 0 0 0 1 7 1 NA NA NA NA NA NA NA NA NA NA
"122" 1 117 977 "/" "0" "sonaPRP" "g_Grille.wav" "Grille__.bmp" "F_g_150_.bmp" "<" 277 "F" "gesp" 150 1500 1 91 9 91 0 0 0 1 7 1 NA NA NA NA NA NA NA NA NA NA
"123" 1 118 2380 ">" "+" "sonaPRP" "g_Telefo.wav" "Frosch__.bmp" "P_n_150_.bmp" ">" 277 "P" "norm" 150 0 4 97 9 90 0 0 0 6 14 1 NA NA NA NA NA NA NA NA NA NA
"124" 1 118 2781 "/" "0" "sonaPRP" "g_Telefo.wav" "Frosch__.bmp" "P_n_150_.bmp" ">" 277 "P" "norm" 150 0 4 97 9 90 0 0 0 6 14 1 NA NA NA NA NA NA NA NA NA NA
"125" 1 119 1562 ">" "+" "sonaPRP" "g_Grille.wav" "Pistol__.bmp" "Q_n_210_.bmp" ">" 672 "Q" "norm" 210 1500 5 91 9 94 0 0 0 1 7 1 NA NA NA NA NA NA NA NA NA NA
"126" 1 119 1289 "/" "0" "sonaPRP" "g_Grille.wav" "Pistol__.bmp" "Q_n_210_.bmp" ">" 672 "Q" "norm" 210 1500 5 91 9 94 0 0 0 1 7 1 NA NA NA NA NA NA NA NA NA NA
"127" 1 120 1164 ">" "-" "sonaPRP" "g_Pfeife.wav" "Pfeife__.bmp" "Z_g_150_.bmp" "<" 277 "Z" "gesp" 150 1500 1 93 9 93 0 0 0 6 6 1 NA NA NA NA NA NA NA NA NA NA
"128" 1 120 1304 "/" "0" "sonaPRP" "g_Pfeife.wav" "Pfeife__.bmp" "Z_g_150_.bmp" "<" 277 "Z" "gesp" 150 1500 1 93 9 93 0 0 0 6 6 1 NA NA NA NA NA NA NA NA NA NA
"129" 1 121 1242 "<" "+" "sonaPRP" "g_Kanone.wav" "Grille__.bmp" "P_g_210_.bmp" "<" 672 "P" "gesp" 210 1500 4 92 9 91 0 0 0 7 9 1 NA NA NA NA NA NA NA NA NA NA
"130" 1 121 850 "/" "0" "sonaPRP" "g_Kanone.wav" "Grille__.bmp" "P_g_210_.bmp" "<" 672 "P" "gesp" 210 1500 4 92 9 91 0 0 0 7 9 1 NA NA NA NA NA NA NA NA NA NA
"131" 1 122 1409 "<" "-" "sonaPRP" "g_Hubsch.wav" "Hubsch__.bmp" "B_n_150_.bmp" ">" 277 "B" "norm" 150 0 1 96 9 96 0 0 0 2 8 1 NA NA NA NA NA NA NA NA NA NA
"132" 1 122 1933 "/" "0" "sonaPRP" "g_Hubsch.wav" "Hubsch__.bmp" "B_n_150_.bmp" ">" 277 "B" "norm" 150 0 1 96 9 96 0 0 0 2 8 1 NA NA NA NA NA NA NA NA NA NA
"133" 1 123 1480 "<" "-" "sonaPRP" "g_Pistol.wav" "Telefo__.bmp" "G_n_210_.bmp" ">" 277 "G" "norm" 210 0 5 94 9 97 0 0 0 7 16 1 NA NA NA NA NA NA NA NA NA NA
"134" 1 123 2510 "/" "4" "sonaPRP" "g_Pistol.wav" "Telefo__.bmp" "G_n_210_.bmp" ">" 277 "G" "norm" 210 0 5 94 9 97 0 0 0 7 16 1 NA NA NA NA NA NA NA NA NA NA
"135" 1 124 1311 ">" "+" "sonaPRP" "g_Toilet.wav" "Kanone__.bmp" "F_n_210_.bmp" ">" 672 "F" "norm" 210 1500 5 95 9 92 0 0 0 8 14 1 NA NA NA NA NA NA NA NA NA NA
"136" 1 124 945 "/" "0" "sonaPRP" "g_Toilet.wav" "Kanone__.bmp" "F_n_210_.bmp" ">" 672 "F" "norm" 210 1500 5 95 9 92 0 0 0 8 14 1 NA NA NA NA NA NA NA NA NA NA
"137" 1 125 893 "<" "+" "sonaPRP" "g_Pfeife.wav" "Pistol__.bmp" "L_g_150_.bmp" "<" 277 "L" "gesp" 150 1500 3 93 9 94 0 0 0 6 6 1 NA NA NA NA NA NA NA NA NA NA
"138" 1 125 769 "/" "0" "sonaPRP" "g_Pfeife.wav" "Pistol__.bmp" "L_g_150_.bmp" "<" 277 "L" "gesp" 150 1500 3 93 9 94 0 0 0 6 6 1 NA NA NA NA NA NA NA NA NA NA
"139" 1 126 2254 "<" "+" "sonaPRP" "g_Frosch.wav" "Telefo__.bmp" "G_g_150_.bmp" "<" 672 "G" "gesp" 150 0 4 90 9 97 0 0 0 1 6 1 NA NA NA NA NA NA NA NA NA NA
"140" 1 126 2831 "/" "1" "sonaPRP" "g_Frosch.wav" "Telefo__.bmp" "G_g_150_.bmp" "<" 672 "G" "gesp" 150 0 4 90 9 97 0 0 0 1 6 1 NA NA NA NA NA NA NA NA NA NA
"141" 1 129 962 "<" "-" "sonaPRP" "g_Grille.wav" "Pistol__.bmp" "Q_n_150_.bmp" ">" 672 "Q" "norm" 150 0 5 91 9 94 0 0 0 0 1 7 0 0 0 0 450 452 454 456 458 1
"142" 1 129 3000 "-" "1" "sonaPRP" "g_Grille.wav" "Pistol__.bmp" "Q_n_150_.bmp" ">" 672 "Q" "norm" 150 0 5 91 9 94 0 0 0 0 1 7 0 0 0 0 450 452 454 456 458 1
"143" 1 130 1418 "<" "+" "sonaPRP" "g_Hubsch.wav" "Toilet__.bmp" "F_g_210_.bmp" "<" 277 "F" "gesp" 210 1500 6 96 9 95 0 0 0 0 2 8 0 0 0 0 451 453 455 457 459 1
"144" 1 130 926 "/" "0" "sonaPRP" "g_Hubsch.wav" "Toilet__.bmp" "F_g_210_.bmp" "<" 277 "F" "gesp" 210 1500 6 96 9 95 0 0 0 0 2 8 0 0 0 0 451 453 455 457 459 1
"145" 1 131 1987 ">" "+" "sonaPRP" "g_Besen_.wav" "Besen___.bmp" "L_n_150_.bmp" ">" 277 "L" "norm" 150 0 1 3 1 3 1 1 1 1 3 3 1 3 4 2 33 3 197 269 356 1
"146" 1 131 2447 "/" "0" "sonaPRP" "g_Besen_.wav" "Besen___.bmp" "L_n_150_.bmp" ">" 277 "L" "norm" 150 0 1 3 1 3 1 1 1 1 3 3 1 3 4 2 33 3 197 269 356 1
"147" 1 132 1403 "<" "+" "sonaPRP" "g_Orgel_.wav" "Hund____.bmp" "P_g_150_.bmp" "<" 277 "P" "gesp" 150 0 3 22 1 17 11 1 1 1 5 11 1 3 4 2 17 151 229 22 408 1
"148" 1 132 2039 "/" "0" "sonaPRP" "g_Orgel_.wav" "Hund____.bmp" "P_g_150_.bmp" "<" 277 "P" "gesp" 150 0 3 22 1 17 11 1 1 1 5 11 1 3 4 2 17 151 229 22 408 1
"149" 1 133 1049 ">" "+" "sonaPRP" "g_Gitarr.wav" "Elefan__.bmp" "K_n_210_.bmp" ">" 672 "K" "norm" 210 0 4 12 1 6 4 1 1 1 5 7 1 3 4 2 43 6 12 281 369 1
"150" 1 133 1997 "/" "3" "sonaPRP" "g_Gitarr.wav" "Elefan__.bmp" "K_n_210_.bmp" ">" 672 "K" "norm" 210 0 4 12 1 6 4 1 1 1 5 7 1 3 4 2 43 6 12 281 369 1
"151" 1 134 1296 "<" "+" "sonaPRP" "g_Loewe_.wav" "Schiff__.bmp" "Q_g_210_.bmp" "<" 277 "Q" "gesp" 210 1500 4 21 2 27 9 1 1 1 1 10 1 3 4 2 95 21 251 332 27 1
"152" 1 134 1120 "/" "0" "sonaPRP" "g_Loewe_.wav" "Schiff__.bmp" "Q_g_210_.bmp" "<" 277 "Q" "gesp" 210 1500 4 21 2 27 9 1 1 1 1 10 1 3 4 2 95 21 251 332 27 1
"153" 1 135 872 ">" "+" "sonaPRP" "g_Esel__.wav" "Geige___.bmp" "P_n_150_.bmp" ">" 277 "P" "norm" 150 1500 4 8 2 11 13 1 1 1 1 5 1 3 4 2 8 11 218 294 388 1
"154" 1 135 3000 "-" "1" "sonaPRP" "g_Esel__.wav" "Geige___.bmp" "P_n_150_.bmp" ">" 277 "P" "norm" 150 1500 4 8 2 11 13 1 1 1 1 5 1 3 4 2 8 11 218 294 388 1
"155" 1 136 1034 "<" "+" "sonaPRP" "g_Floete.wav" "Besen___.bmp" "G_g_210_.bmp" "<" 277 "G" "gesp" 210 1500 3 10 2 3 8 1 1 1 5 6 1 3 4 2 35 3 10 271 358 1
"156" 1 136 1009 "/" "1" "sonaPRP" "g_Floete.wav" "Besen___.bmp" "G_g_210_.bmp" "<" 277 "G" "gesp" 210 1500 3 10 2 3 8 1 1 1 5 6 1 3 4 2 35 3 10 271 358 1
"157" 1 137 2165 "<" "+" "sonaPRP" "g_Hahn__.wav" "Ente____.bmp" "F_g_210_.bmp" "<" 672 "F" "gesp" 210 0 2 14 1 7 6 1 1 1 1 8 1 3 4 2 7 14 222 303 397 1
"158" 1 137 3000 "-" "1" "sonaPRP" "g_Hahn__.wav" "Ente____.bmp" "F_g_210_.bmp" "<" 672 "F" "gesp" 210 0 2 14 1 7 6 1 1 1 1 8 1 3 4 2 7 14 222 303 397 1
"159" 1 138 1623 ">" "-" "sonaPRP" "g_Schiff.wav" "Harfe___.bmp" "L_g_150_.bmp" "<" 277 "L" "gesp" 150 1500 3 27 2 16 16 1 1 1 2 13 1 3 4 2 63 148 226 16 27 1
"160" 1 138 1697 "/" "1" "sonaPRP" "g_Schiff.wav" "Harfe___.bmp" "L_g_150_.bmp" "<" 277 "L" "gesp" 150 1500 3 27 2 16 16 1 1 1 2 13 1 3 4 2 63 148 226 16 27 1
"161" 1 139 1954 "<" "-" "sonaPRP" "g_Kuh___.wav" "Affe____.bmp" "P_n_210_.bmp" ">" 672 "P" "norm" 210 0 2 20 1 1 10 1 1 1 1 9 1 3 4 2 1 158 232 20 419 1
"162" 1 139 3000 "-" "1" "sonaPRP" "g_Kuh___.wav" "Affe____.bmp" "P_n_210_.bmp" ">" 672 "P" "norm" 210 0 2 20 1 1 10 1 1 1 1 9 1 3 4 2 1 158 232 20 419 1
"163" 1 140 1612 "<" "+" "sonaPRP" "g_Geige_.wav" "Orgel___.bmp" "F_g_150_.bmp" "<" 277 "F" "gesp" 150 1500 2 11 2 22 11 1 1 1 5 7 1 3 4 2 51 11 216 22 386 1
"164" 1 140 1046 "/" "0" "sonaPRP" "g_Geige_.wav" "Orgel___.bmp" "F_g_150_.bmp" "<" 277 "F" "gesp" 150 1500 2 11 2 22 11 1 1 1 5 7 1 3 4 2 51 11 216 22 386 1
"165" 1 141 2275 "<" "+" "sonaPRP" "g_Zug___.wav" "Harfe___.bmp" "B_g_210_.bmp" "<" 277 "B" "gesp" 210 0 4 32 1 16 16 1 1 1 2 15 1 3 4 2 64 32 227 16 405 1
"166" 1 141 3000 "-" "1" "sonaPRP" "g_Zug___.wav" "Harfe___.bmp" "B_g_210_.bmp" "<" 277 "B" "gesp" 210 0 4 32 1 16 16 1 1 1 2 15 1 3 4 2 64 32 227 16 405 1
"167" 1 142 2822 "<" "+" "sonaPRP" "g_Tromme.wav" "Elefan__.bmp" "P_g_210_.bmp" "<" 672 "P" "gesp" 210 1500 3 30 2 6 4 1 1 1 5 14 1 3 4 2 42 6 207 280 30 1
"168" 1 142 2350 "/" "0" "sonaPRP" "g_Tromme.wav" "Elefan__.bmp" "P_g_210_.bmp" "<" 672 "P" "gesp" 210 1500 3 30 2 6 4 1 1 1 5 14 1 3 4 2 42 6 207 280 30 1
"169" 1 143 1850 ">" "+" "sonaPRP" "g_Harfe_.wav" "Besen___.bmp" "Q_n_210_.bmp" ">" 277 "Q" "norm" 210 0 4 16 1 3 8 1 1 1 5 8 1 3 4 2 36 3 198 16 359 1
"170" 1 143 2707 "/" "0" "sonaPRP" "g_Harfe_.wav" "Besen___.bmp" "Q_n_210_.bmp" ">" 277 "Q" "norm" 210 0 4 16 1 3 8 1 1 1 5 8 1 3 4 2 36 3 198 16 359 1
"171" 1 144 1470 "<" "-" "sonaPRP" "g_Katze_.wav" "Katze___.bmp" "B_n_150_.bmp" ">" 672 "B" "norm" 150 0 1 18 1 18 9 1 1 1 1 9 1 3 4 2 65 152 18 311 410 1
"172" 1 144 2769 "/" "0" "sonaPRP" "g_Katze_.wav" "Katze___.bmp" "B_n_150_.bmp" ">" 672 "B" "norm" 150 0 1 18 1 18 9 1 1 1 1 9 1 3 4 2 65 152 18 311 410 1
"173" 1 145 1214 ">" "-" "sonaPRP" "g_Schwei.wav" "Schwei__.bmp" "K_g_210_.bmp" "<" 672 "K" "gesp" 210 1500 1 28 2 28 2 1 1 1 1 13 1 3 4 2 96 179 252 28 439 1
"174" 1 145 734 "/" "3" "sonaPRP" "g_Schwei.wav" "Schwei__.bmp" "K_g_210_.bmp" "<" 672 "K" "gesp" 210 1500 1 28 2 28 2 1 1 1 1 13 1 3 4 2 96 179 252 28 439 1
"175" 1 146 1792 ">" "-" "sonaPRP" "g_Trompe.wav" "Staubs__.bmp" "Z_g_210_.bmp" "<" 277 "Z" "gesp" 210 0 3 31 1 29 15 1 1 1 5 14 1 3 4 2 101 183 29 335 31 1
"176" 1 146 2523 "/" "0" "sonaPRP" "g_Trompe.wav" "Staubs__.bmp" "Z_g_210_.bmp" "<" 277 "Z" "gesp" 210 0 3 31 1 29 15 1 1 1 5 14 1 3 4 2 101 183 29 335 31 1
"177" 1 147 1866 "<" "+" "sonaPRP" "g_Hund__.wav" "Zug_____.bmp" "B_g_150_.bmp" "<" 672 "B" "gesp" 150 1500 3 17 2 32 12 1 1 1 1 8 1 3 4 2 17 32 262 347 447 1
"178" 1 147 1180 "/" "0" "sonaPRP" "g_Hund__.wav" "Zug_____.bmp" "B_g_150_.bmp" "<" 672 "B" "gesp" 150 1500 3 17 2 32 12 1 1 1 1 8 1 3 4 2 17 32 262 347 447 1
"179" 1 148 1405 "<" "-" "sonaPRP" "g_Saege_.wav" "Saege___.bmp" "K_n_150_.bmp" ">" 277 "K" "norm" 150 1500 1 24 2 24 14 1 1 1 4 12 1 3 4 2 83 165 240 24 433 1
"180" 1 148 797 "/" "0" "sonaPRP" "g_Saege_.wav" "Saege___.bmp" "K_n_150_.bmp" ">" 277 "K" "norm" 150 1500 1 24 2 24 14 1 1 1 4 12 1 3 4 2 83 165 240 24 433 1
"181" 1 149 1468 ">" "+" "sonaPRP" "g_Bohrer.wav" "Hammer__.bmp" "F_n_210_.bmp" ">" 672 "F" "norm" 210 1500 2 4 2 15 7 1 1 1 4 3 1 3 4 2 4 121 15 273 361 1
"182" 1 149 1007 "/" "1" "sonaPRP" "g_Bohrer.wav" "Hammer__.bmp" "F_n_210_.bmp" ">" 672 "F" "norm" 210 1500 2 4 2 15 7 1 1 1 4 3 1 3 4 2 4 121 15 273 361 1
"183" 1 150 1603 ">" "+" "sonaPRP" "g_Fahrra.wav" "Loewe___.bmp" "Z_n_150_.bmp" ">" 672 "Z" "norm" 150 0 3 9 1 21 3 1 1 1 2 6 1 3 4 2 76 21 9 320 424 1
"184" 1 150 2171 "/" "1" "sonaPRP" "g_Fahrra.wav" "Loewe___.bmp" "Z_n_150_.bmp" ">" 672 "Z" "norm" 150 0 3 9 1 21 3 1 1 1 2 6 1 3 4 2 76 21 9 320 424 1
"185" 1 151 1667 "<" "+" "sonaPRP" "g_Schere.wav" "Saege___.bmp" "L_g_210_.bmp" "<" 672 "L" "gesp" 210 0 2 26 1 24 14 1 1 1 4 13 1 3 4 2 90 174 247 24 26 1
"186" 1 151 2665 "/" "0" "sonaPRP" "g_Schere.wav" "Saege___.bmp" "L_g_210_.bmp" "<" 672 "L" "gesp" 210 0 2 26 1 24 14 1 1 1 4 13 1 3 4 2 90 174 247 24 26 1
"187" 1 152 1897 ">" "+" "sonaPRP" "g_Ente__.wav" "Ente____.bmp" "B_n_210_.bmp" ">" 277 "B" "norm" 210 1500 1 7 2 7 6 1 1 1 1 5 1 3 4 2 7 123 208 282 370 1
"188" 1 152 1567 "/" "0" "sonaPRP" "g_Ente__.wav" "Ente____.bmp" "B_n_210_.bmp" ">" 277 "B" "norm" 210 1500 1 7 2 7 6 1 1 1 1 5 1 3 4 2 7 123 208 282 370 1
"189" 1 153 1881 "<" "-" "sonaPRP" "g_Auto__.wav" "Fahrra__.bmp" "G_n_150_.bmp" ">" 672 "G" "norm" 150 1500 2 2 2 9 3 1 1 1 2 2 1 3 4 2 2 118 9 266 353 1
"190" 1 153 1647 "/" "0" "sonaPRP" "g_Auto__.wav" "Fahrra__.bmp" "G_n_150_.bmp" ">" 672 "G" "norm" 150 1500 2 2 2 9 3 1 1 1 2 2 1 3 4 2 2 118 9 266 353 1
"191" 1 154 1603 ">" "+" "sonaPRP" "g_Klinge.wav" "Schwei__.bmp" "Z_n_210_.bmp" ">" 277 "Z" "norm" 210 1500 4 19 2 28 5 1 1 1 6 9 1 3 4 2 98 181 19 28 442 1
"192" 1 154 1148 "/" "0" "sonaPRP" "g_Klinge.wav" "Schwei__.bmp" "Z_n_210_.bmp" ">" 277 "Z" "norm" 210 1500 4 19 2 28 5 1 1 1 6 9 1 3 4 2 98 181 19 28 442 1
"193" 1 155 1426 ">" "-" "sonaPRP" "g_Schaf_.wav" "Schaf___.bmp" "K_g_150_.bmp" "<" 277 "K" "gesp" 150 0 1 25 1 25 13 1 1 1 1 13 1 3 4 2 87 169 243 25 435 1
"194" 1 155 3000 "-" "1" "sonaPRP" "g_Schaf_.wav" "Schaf___.bmp" "K_g_150_.bmp" "<" 277 "K" "gesp" 150 0 1 25 1 25 13 1 1 1 1 13 1 3 4 2 87 169 243 25 435 1
"195" 1 156 2127 "<" "+" "sonaPRP" "g_Pferd_.wav" "Zug_____.bmp" "Q_g_150_.bmp" "<" 672 "Q" "gesp" 150 0 4 23 1 32 12 1 1 1 1 6 1 3 4 2 112 32 23 348 448 1
"196" 1 156 3000 "-" "4" "sonaPRP" "g_Pferd_.wav" "Zug_____.bmp" "Q_g_150_.bmp" "<" 672 "Q" "gesp" 150 0 4 23 1 32 12 1 1 1 1 6 1 3 4 2 112 32 23 348 448 1
"197" 1 157 2162 "<" "+" "sonaPRP" "g_Hammer.wav" "Dudels__.bmp" "G_g_150_.bmp" "<" 672 "G" "gesp" 150 0 3 15 1 5 7 1 1 1 4 8 1 3 4 2 39 5 15 277 365 1
"198" 1 157 3000 "-" "4" "sonaPRP" "g_Hammer.wav" "Dudels__.bmp" "G_g_150_.bmp" "<" 672 "G" "gesp" 150 0 3 15 1 5 7 1 1 1 4 8 1 3 4 2 39 5 15 277 365 1
"199" 1 158 1308 ">" "+" "sonaPRP" "g_Affe__.wav" "Affe____.bmp" "L_n_210_.bmp" ">" 672 "L" "norm" 210 1500 1 1 2 1 10 1 1 1 1 1 1 3 4 2 1 113 191 263 349 1
"200" 1 158 1816 "/" "0" "sonaPRP" "g_Affe__.wav" "Affe____.bmp" "L_n_210_.bmp" ">" 672 "L" "norm" 210 1500 1 1 2 1 10 1 1 1 1 1 1 3 4 2 1 113 191 263 349 1
"201" 1 159 1454 ">" "+" "sonaPRP" "g_Glocke.wav" "Glocke__.bmp" "F_n_150_.bmp" ">" 277 "F" "norm" 150 0 1 13 1 13 5 1 1 1 6 7 1 3 4 2 13 140 219 298 392 1
"202" 1 159 2116 "/" "0" "sonaPRP" "g_Glocke.wav" "Glocke__.bmp" "F_n_150_.bmp" ">" 277 "F" "norm" 150 0 1 13 1 13 5 1 1 1 6 7 1 3 4 2 13 140 219 298 392 1
"203" 1 160 1598 ">" "-" "sonaPRP" "g_Staubs.wav" "Auto____.bmp" "Z_g_150_.bmp" "<" 672 "Z" "gesp" 150 1500 4 29 2 2 1 1 1 1 3 13 1 3 4 2 2 119 29 268 355 1
"204" 1 160 922 "/" "0" "sonaPRP" "g_Staubs.wav" "Auto____.bmp" "Z_g_150_.bmp" "<" 672 "Z" "gesp" 150 1500 4 29 2 2 1 1 1 1 3 13 1 3 4 2 2 119 29 268 355 1
"205" 1 161 1123 ">" "+" "sonaPRP" "g_Elefan.wav" "Schwei__.bmp" "G_n_210_.bmp" ">" 277 "G" "norm" 210 0 2 6 1 28 2 1 1 1 1 5 1 3 4 2 41 6 206 28 368 1
"206" 1 161 1812 "/" "0" "sonaPRP" "g_Elefan.wav" "Schwei__.bmp" "G_n_210_.bmp" ">" 277 "G" "norm" 210 0 2 6 1 28 2 1 1 1 1 5 1 3 4 2 41 6 206 28 368 1
"207" 1 162 981 ">" "+" "sonaPRP" "g_Dudels.wav" "Trompe__.bmp" "Q_n_150_.bmp" ">" 672 "Q" "norm" 150 1500 2 5 2 31 15 1 1 1 5 4 1 3 4 2 38 5 203 276 31 1
"208" 1 162 751 "/" "3" "sonaPRP" "g_Dudels.wav" "Trompe__.bmp" "Q_n_150_.bmp" ">" 672 "Q" "norm" 150 1500 2 5 2 31 15 1 1 1 5 4 1 3 4 2 38 5 203 276 31 1
"209" 1 163 1797 "<" "+" "sonaPRP" "g_Hahn__.wav" "Klinge__.bmp" "F_g_210_.bmp" "<" 672 "F" "gesp" 210 0 3 14 1 19 6 1 1 2 1 8 2 1 3 4 70 14 19 316 416 1
"210" 1 163 2400 "/" "1" "sonaPRP" "g_Hahn__.wav" "Klinge__.bmp" "F_g_210_.bmp" "<" 672 "F" "gesp" 210 0 3 14 1 19 6 1 1 2 1 8 2 1 3 4 70 14 19 316 416 1
"211" 1 164 1648 ">" "+" "sonaPRP" "g_Kuh___.wav" "Floete__.bmp" "P_n_210_.bmp" ">" 672 "P" "norm" 210 0 3 20 1 10 10 1 1 2 1 9 2 1 3 4 49 134 10 20 383 1
"212" 1 164 3000 "-" "1" "sonaPRP" "g_Kuh___.wav" "Floete__.bmp" "P_n_210_.bmp" ">" 672 "P" "norm" 210 0 3 20 1 10 10 1 1 2 1 9 2 1 3 4 49 134 10 20 383 1
"213" 1 165 1755 ">" "+" "sonaPRP" "g_Saege_.wav" "Schere__.bmp" "K_n_150_.bmp" ">" 277 "K" "norm" 150 1500 2 24 2 26 14 1 1 2 4 12 2 1 3 4 84 166 241 24 26 1
"214" 1 165 1436 "/" "0" "sonaPRP" "g_Saege_.wav" "Schere__.bmp" "K_n_150_.bmp" ">" 277 "K" "norm" 150 1500 2 24 2 26 14 1 1 2 4 12 2 1 3 4 84 166 241 24 26 1
"215" 1 166 1511 ">" "+" "sonaPRP" "g_Glocke.wav" "Klinge__.bmp" "F_n_150_.bmp" ">" 277 "F" "norm" 150 0 2 13 1 19 5 1 1 2 6 7 2 1 3 4 13 141 19 299 393 1
"216" 1 166 2194 "/" "0" "sonaPRP" "g_Glocke.wav" "Klinge__.bmp" "F_n_150_.bmp" ">" 277 "F" "norm" 150 0 2 13 1 19 5 1 1 2 6 7 2 1 3 4 13 141 19 299 393 1
"217" 1 167 1467 "<" "+" "sonaPRP" "g_Pferd_.wav" "Pferd___.bmp" "Q_g_150_.bmp" "<" 672 "Q" "gesp" 150 0 1 23 1 23 12 1 1 2 1 6 2 1 3 4 80 162 23 322 430 1
"218" 1 167 2300 "/" "0" "sonaPRP" "g_Pferd_.wav" "Pferd___.bmp" "Q_g_150_.bmp" "<" 672 "Q" "gesp" 150 0 1 23 1 23 12 1 1 2 1 6 2 1 3 4 80 162 23 322 430 1
"219" 1 168 2201 ">" "+" "sonaPRP" "g_Gitarr.wav" "Gitarr__.bmp" "K_n_210_.bmp" ">" 672 "K" "norm" 210 0 1 12 1 12 4 1 1 2 5 7 2 1 3 4 53 136 12 295 389 1
"220" 1 168 2610 "/" "0" "sonaPRP" "g_Gitarr.wav" "Gitarr__.bmp" "K_n_210_.bmp" ">" 672 "K" "norm" 210 0 1 12 1 12 4 1 1 2 5 7 2 1 3 4 53 136 12 295 389 1
"221" 1 169 1333 "<" "+" "sonaPRP" "g_Schiff.wav" "Esel____.bmp" "L_g_150_.bmp" "<" 277 "L" "gesp" 150 1500 4 27 2 8 16 1 1 2 2 13 2 1 3 4 8 128 214 287 27 1
"222" 1 169 849 "/" "1" "sonaPRP" "g_Schiff.wav" "Esel____.bmp" "L_g_150_.bmp" "<" 277 "L" "gesp" 150 1500 4 27 2 8 16 1 1 2 2 13 2 1 3 4 8 128 214 287 27 1
"223" 1 170 843 ">" "+" "sonaPRP" "g_Bohrer.wav" "Trompe__.bmp" "F_n_210_.bmp" ">" 672 "F" "norm" 210 1500 3 4 2 31 7 1 1 2 4 3 2 1 3 4 4 189 259 343 31 1
"224" 1 170 1445 "/" "1" "sonaPRP" "g_Bohrer.wav" "Trompe__.bmp" "F_n_210_.bmp" ">" 672 "F" "norm" 210 1500 3 4 2 31 7 1 1 2 4 3 2 1 3 4 4 189 259 343 31 1
"225" 1 171 1845 "<" "-" "sonaPRP" "g_Fahrra.wav" "Schaf___.bmp" "Z_n_150_.bmp" ">" 672 "Z" "norm" 150 0 4 9 1 25 3 1 1 2 2 6 2 1 3 4 88 172 9 25 438 1
"226" 1 171 1847 "/" "1" "sonaPRP" "g_Fahrra.wav" "Schaf___.bmp" "Z_n_150_.bmp" ">" 672 "Z" "norm" 150 0 4 9 1 25 3 1 1 2 2 6 2 1 3 4 88 172 9 25 438 1
"227" 1 172 2000 ">" "-" "sonaPRP" "g_Zug___.wav" "Zug_____.bmp" "B_g_210_.bmp" "<" 277 "B" "gesp" 210 0 1 32 1 32 16 1 1 2 2 15 2 1 3 4 110 32 260 345 446 1
"228" 1 172 3000 "-" "4" "sonaPRP" "g_Zug___.wav" "Zug_____.bmp" "B_g_210_.bmp" "<" 277 "B" "gesp" 210 0 1 32 1 32 16 1 1 2 2 15 2 1 3 4 110 32 260 345 446 1
"229" 1 173 1171 "<" "+" "sonaPRP" "g_Loewe_.wav" "Loewe___.bmp" "Q_g_210_.bmp" "<" 277 "Q" "gesp" 210 1500 1 21 2 21 9 1 1 2 1 10 2 1 3 4 74 21 234 318 422 1
"230" 1 173 533 "/" "4" "sonaPRP" "g_Loewe_.wav" "Loewe___.bmp" "Q_g_210_.bmp" "<" 277 "Q" "gesp" 210 1500 1 21 2 21 9 1 1 2 1 10 2 1 3 4 74 21 234 318 422 1
"231" 1 174 3000 "-" "-" "sonaPRP" "g_Besen_.wav" "Staubs__.bmp" "L_n_150_.bmp" ">" 277 "L" "norm" 150 0 2 3 1 29 1 1 1 2 3 3 2 1 3 4 34 3 29 270 357 1
"232" 1 174 3000 "-" "-" "sonaPRP" "g_Besen_.wav" "Staubs__.bmp" "L_n_150_.bmp" ">" 277 "L" "norm" 150 0 2 3 1 29 1 1 1 2 3 3 2 1 3 4 34 3 29 270 357 1
"233" 1 175 1771 "/" "0" "sonaPRP" "g_Tromme.wav" "Saege___.bmp" "P_g_210_.bmp" "<" 672 "P" "gesp" 210 1500 4 30 2 24 4 1 1 2 5 14 2 1 3 4 86 168 242 24 30 1
"234" 1 176 978 "<" "-" "sonaPRP" "g_Auto__.wav" "Schaf___.bmp" "G_n_150_.bmp" ">" 672 "G" "norm" 150 1500 3 2 2 25 3 1 1 2 2 2 2 1 3 4 2 171 245 25 437 1
"235" 1 176 1310 "/" "0" "sonaPRP" "g_Auto__.wav" "Schaf___.bmp" "G_n_150_.bmp" ">" 672 "G" "norm" 150 1500 3 2 2 25 3 1 1 2 2 2 2 1 3 4 2 171 245 25 437 1
"236" 1 177 722 ">" "+" "sonaPRP" "g_Affe__.wav" "Kuh_____.bmp" "L_n_210_.bmp" ">" 672 "L" "norm" 210 1500 2 1 2 20 10 1 1 2 1 1 2 1 3 4 1 114 192 20 350 1
"237" 1 177 1936 "/" "0" "sonaPRP" "g_Affe__.wav" "Kuh_____.bmp" "L_n_210_.bmp" ">" 672 "L" "norm" 210 1500 2 1 2 20 10 1 1 2 1 1 2 1 3 4 1 114 192 20 350 1
"238" 1 178 1010 "<" "+" "sonaPRP" "g_Orgel_.wav" "Katze___.bmp" "P_g_150_.bmp" "<" 277 "P" "gesp" 150 0 4 22 1 18 11 1 1 2 5 11 2 1 3 4 68 153 18 22 413 1
"239" 1 178 2062 "/" "0" "sonaPRP" "g_Orgel_.wav" "Katze___.bmp" "P_g_150_.bmp" "<" 277 "P" "gesp" 150 0 4 22 1 18 11 1 1 2 5 11 2 1 3 4 68 153 18 22 413 1
"240" 1 179 1459 ">" "-" "sonaPRP" "g_Hammer.wav" "Trompe__.bmp" "G_g_150_.bmp" "<" 672 "G" "gesp" 150 0 4 15 1 31 7 1 1 2 4 8 2 1 3 4 109 190 15 344 31 1
"241" 1 179 1918 "/" "0" "sonaPRP" "g_Hammer.wav" "Trompe__.bmp" "G_g_150_.bmp" "<" 672 "G" "gesp" 150 0 4 15 1 31 7 1 1 2 4 8 2 1 3 4 109 190 15 344 31 1
"242" 1 180 1005 ">" "+" "sonaPRP" "g_Klinge.wav" "Klinge__.bmp" "Z_n_210_.bmp" ">" 277 "Z" "norm" 210 1500 1 19 2 19 5 1 1 2 6 9 2 1 3 4 69 154 19 314 414 1
"243" 1 180 742 "/" "3" "sonaPRP" "g_Klinge.wav" "Klinge__.bmp" "Z_n_210_.bmp" ">" 277 "Z" "norm" 210 1500 1 19 2 19 5 1 1 2 6 9 2 1 3 4 69 154 19 314 414 1
"244" 1 181 1384 "<" "-" "sonaPRP" "g_Esel__.wav" "Esel____.bmp" "P_n_150_.bmp" ">" 277 "P" "norm" 150 1500 1 8 2 8 13 1 1 2 1 5 2 1 3 4 8 126 211 285 374 1
"245" 1 181 1439 "/" "0" "sonaPRP" "g_Esel__.wav" "Esel____.bmp" "P_n_150_.bmp" ">" 277 "P" "norm" 150 1500 1 8 2 8 13 1 1 2 1 5 2 1 3 4 8 126 211 285 374 1
"246" 1 182 1102 ">" "+" "sonaPRP" "g_Katze_.wav" "Loewe___.bmp" "B_n_150_.bmp" ">" 672 "B" "norm" 150 0 2 18 1 21 9 1 1 2 1 9 2 1 3 4 66 21 18 312 411 1
"247" 1 182 1938 "/" "0" "sonaPRP" "g_Katze_.wav" "Loewe___.bmp" "B_n_150_.bmp" ">" 672 "B" "norm" 150 0 2 18 1 21 9 1 1 2 1 9 2 1 3 4 66 21 18 312 411 1
"248" 1 183 1258 ">" "-" "sonaPRP" "g_Trompe.wav" "Pferd___.bmp" "Z_g_210_.bmp" "<" 277 "Z" "gesp" 210 0 4 31 1 23 15 1 1 2 5 14 2 1 3 4 82 164 23 325 31 1
"249" 1 183 1983 "/" "0" "sonaPRP" "g_Trompe.wav" "Pferd___.bmp" "Z_g_210_.bmp" "<" 277 "Z" "gesp" 210 0 4 31 1 23 15 1 1 2 5 14 2 1 3 4 82 164 23 325 31 1
"250" 1 184 1094 ">" "+" "sonaPRP" "g_Elefan.wav" "Bohrer__.bmp" "G_n_210_.bmp" ">" 277 "G" "norm" 210 0 3 6 1 4 2 1 1 2 1 5 2 1 3 4 4 6 200 274 362 1
"251" 1 184 2334 "/" "0" "sonaPRP" "g_Elefan.wav" "Bohrer__.bmp" "G_n_210_.bmp" ">" 277 "G" "norm" 210 0 3 6 1 4 2 1 1 2 1 5 2 1 3 4 4 6 200 274 362 1
"252" 1 185 916 "<" "+" "sonaPRP" "g_Hund__.wav" "Tromme__.bmp" "B_g_150_.bmp" "<" 672 "B" "gesp" 150 1500 4 17 2 30 12 1 1 2 1 8 2 1 3 4 17 187 256 340 30 1
"253" 1 185 1134 "/" "0" "sonaPRP" "g_Hund__.wav" "Tromme__.bmp" "B_g_150_.bmp" "<" 672 "B" "gesp" 150 1500 4 17 2 30 12 1 1 2 1 8 2 1 3 4 17 187 256 340 30 1
"254" 1 186 1563 "<" "+" "sonaPRP" "g_Schere.wav" "Affe____.bmp" "L_g_210_.bmp" "<" 672 "L" "gesp" 210 0 3 26 1 1 14 1 1 2 4 13 2 1 3 4 1 115 193 264 26 1
"255" 1 186 2245 "/" "0" "sonaPRP" "g_Schere.wav" "Affe____.bmp" "L_g_210_.bmp" "<" 672 "L" "gesp" 210 0 3 26 1 1 14 1 1 2 4 13 2 1 3 4 1 115 193 264 26 1
"256" 1 187 1060 ">" "-" "sonaPRP" "g_Floete.wav" "Ente____.bmp" "G_g_210_.bmp" "<" 277 "G" "gesp" 210 1500 4 10 2 7 8 1 1 2 5 6 2 1 3 4 7 125 10 284 373 1
"257" 1 187 1895 "/" "0" "sonaPRP" "g_Floete.wav" "Ente____.bmp" "G_g_210_.bmp" "<" 277 "G" "gesp" 210 1500 4 10 2 7 8 1 1 2 5 6 2 1 3 4 7 125 10 284 373 1
"258" 1 188 910 "<" "-" "sonaPRP" "g_Dudels.wav" "Pferd___.bmp" "Q_n_150_.bmp" ">" 672 "Q" "norm" 150 1500 3 5 2 23 15 1 1 2 5 4 2 1 3 4 81 5 23 324 432 1
"259" 1 188 1122 "/" "0" "sonaPRP" "g_Dudels.wav" "Pferd___.bmp" "Q_n_150_.bmp" ">" 672 "Q" "norm" 150 1500 3 5 2 23 15 1 1 2 5 4 2 1 3 4 81 5 23 324 432 1
"260" 1 189 1904 "<" "+" "sonaPRP" "g_Schaf_.wav" "Esel____.bmp" "K_g_150_.bmp" "<" 277 "K" "gesp" 150 0 2 25 1 8 13 1 1 2 1 13 2 1 3 4 8 170 244 25 436 1
"261" 1 189 3000 "-" "1" "sonaPRP" "g_Schaf_.wav" "Esel____.bmp" "K_g_150_.bmp" "<" 277 "K" "gesp" 150 0 2 25 1 8 13 1 1 2 1 13 2 1 3 4 8 170 244 25 436 1
"262" 1 190 1620 "<" "-" "sonaPRP" "g_Ente__.wav" "Hahn____.bmp" "B_n_210_.bmp" ">" 277 "B" "norm" 210 1500 2 7 2 14 6 1 1 2 1 5 2 1 3 4 7 14 209 283 371 1
"263" 1 190 968 "/" "5" "sonaPRP" "g_Ente__.wav" "Hahn____.bmp" "B_n_210_.bmp" ">" 277 "B" "norm" 210 1500 2 7 2 14 6 1 1 2 1 5 2 1 3 4 7 14 209 283 371 1
"264" 1 191 1278 "<" "+" "sonaPRP" "g_Geige_.wav" "Katze___.bmp" "F_g_150_.bmp" "<" 277 "F" "gesp" 150 1500 3 11 2 18 11 1 1 2 5 7 2 1 3 4 67 11 18 313 412 1
"265" 1 191 1055 "/" "0" "sonaPRP" "g_Geige_.wav" "Katze___.bmp" "F_g_150_.bmp" "<" 277 "F" "gesp" 150 1500 3 11 2 18 11 1 1 2 5 7 2 1 3 4 67 11 18 313 412 1
"266" 1 192 1162 "<" "+" "sonaPRP" "g_Schwei.wav" "Elefan__.bmp" "K_g_210_.bmp" "<" 672 "K" "gesp" 210 1500 2 28 2 6 2 1 1 2 1 13 2 1 3 4 97 6 253 28 440 1
"267" 1 192 2018 "/" "3" "sonaPRP" "g_Schwei.wav" "Elefan__.bmp" "K_g_210_.bmp" "<" 672 "K" "gesp" 210 1500 2 28 2 6 2 1 1 2 1 13 2 1 3 4 97 6 253 28 440 1
"268" 1 193 1439 "<" "-" "sonaPRP" "g_Harfe_.wav" "Harfe___.bmp" "Q_n_210_.bmp" ">" 277 "Q" "norm" 210 0 1 16 1 16 8 1 1 2 5 8 2 1 3 4 61 147 225 16 403 1
"269" 1 193 1810 "/" "0" "sonaPRP" "g_Harfe_.wav" "Harfe___.bmp" "Q_n_210_.bmp" ">" 277 "Q" "norm" 210 0 1 16 1 16 8 1 1 2 5 8 2 1 3 4 61 147 225 16 403 1
"270" 1 194 1469 "<" "+" "sonaPRP" "g_Staubs.wav" "Staubs__.bmp" "Z_g_150_.bmp" "<" 672 "Z" "gesp" 150 1500 1 29 2 29 1 1 1 2 3 13 2 1 3 4 99 182 29 333 443 1
"271" 1 194 655 "/" "0" "sonaPRP" "g_Staubs.wav" "Staubs__.bmp" "Z_g_150_.bmp" "<" 672 "Z" "gesp" 150 1500 1 29 2 29 1 1 1 2 3 13 2 1 3 4 99 182 29 333 443 1
"272" 1 197 1291 "<" "+" "sonaPRP" "g_Frosch.wav" "Hubsch__.bmp" "L_g_210_.bmp" "<" 672 "L" "gesp" 210 1500 5 90 9 96 0 0 0 0 1 6 0 0 0 0 460 462 464 466 468 1
"273" 1 197 1082 "/" "1" "sonaPRP" "g_Frosch.wav" "Hubsch__.bmp" "L_g_210_.bmp" "<" 672 "L" "gesp" 210 1500 5 90 9 96 0 0 0 0 1 6 0 0 0 0 460 462 464 466 468 1
"274" 1 198 1212 "<" "-" "sonaPRP" "g_Toilet.wav" "Pistol__.bmp" "P_n_150_.bmp" ">" 277 "P" "norm" 150 0 6 95 9 94 0 0 0 0 8 14 0 0 0 0 461 463 465 467 469 1
"275" 1 198 2037 "/" "0" "sonaPRP" "g_Toilet.wav" "Pistol__.bmp" "P_n_150_.bmp" ">" 277 "P" "norm" 150 0 6 95 9 94 0 0 0 0 8 14 0 0 0 0 461 463 465 467 469 1
"276" 1 199 1385 "<" "-" "sonaPRP" "g_Gitarr.wav" "Saege___.bmp" "K_n_210_.bmp" ">" 672 "K" "norm" 210 0 3 12 1 24 4 2 1 3 5 7 3 4 2 1 85 167 12 24 434 1
"277" 1 199 2205 "/" "0" "sonaPRP" "g_Gitarr.wav" "Saege___.bmp" "K_n_210_.bmp" ">" 672 "K" "norm" 210 0 3 12 1 24 4 2 1 3 5 7 3 4 2 1 85 167 12 24 434 1
"278" 1 200 1188 "<" "+" "sonaPRP" "g_Hahn__.wav" "Hahn____.bmp" "F_g_210_.bmp" "<" 672 "F" "gesp" 210 0 1 14 1 14 6 2 1 3 1 8 3 4 2 1 56 14 221 302 396 1
"279" 1 200 1907 "/" "0" "sonaPRP" "g_Hahn__.wav" "Hahn____.bmp" "F_g_210_.bmp" "<" 672 "F" "gesp" 210 0 1 14 1 14 6 2 1 3 1 8 3 4 2 1 56 14 221 302 396 1
"280" 1 201 824 "<" "+" "sonaPRP" "g_Staubs.wav" "Kuh_____.bmp" "Z_g_150_.bmp" "<" 672 "Z" "gesp" 150 1500 3 29 2 20 1 2 1 3 3 13 3 4 2 1 72 159 29 20 420 1
"281" 1 201 804 "/" "0" "sonaPRP" "g_Staubs.wav" "Kuh_____.bmp" "Z_g_150_.bmp" "<" 672 "Z" "gesp" 150 1500 3 29 2 20 1 2 1 3 3 13 3 4 2 1 72 159 29 20 420 1
"282" 1 202 1061 "<" "+" "sonaPRP" "g_Loewe_.wav" "Glocke__.bmp" "Q_g_210_.bmp" "<" 277 "Q" "gesp" 210 1500 3 21 2 13 9 2 1 3 1 10 3 4 2 1 13 21 220 300 394 1
"283" 1 202 1044 "/" "0" "sonaPRP" "g_Loewe_.wav" "Glocke__.bmp" "Q_g_210_.bmp" "<" 277 "Q" "gesp" 210 1500 3 21 2 13 9 2 1 3 1 10 3 4 2 1 13 21 220 300 394 1
"284" 1 203 952 "<" "-" "sonaPRP" "g_Elefan.wav" "Elefan__.bmp" "G_n_210_.bmp" ">" 277 "G" "norm" 210 0 1 6 1 6 2 2 1 3 1 5 3 4 2 1 40 6 205 279 367 1
"285" 1 203 2006 "/" "0" "sonaPRP" "g_Elefan.wav" "Elefan__.bmp" "G_n_210_.bmp" ">" 277 "G" "norm" 210 0 1 6 1 6 2 2 1 3 1 5 3 4 2 1 40 6 205 279 367 1
"286" 1 204 843 "<" "+" "sonaPRP" "g_Schere.wav" "Schere__.bmp" "L_g_210_.bmp" "<" 672 "L" "gesp" 210 0 1 26 1 26 14 2 1 3 4 13 3 4 2 1 89 173 246 326 26 1
"287" 1 204 1242 "/" "0" "sonaPRP" "g_Schere.wav" "Schere__.bmp" "L_g_210_.bmp" "<" 672 "L" "gesp" 210 0 1 26 1 26 14 2 1 3 4 13 3 4 2 1 89 173 246 326 26 1
"288" 1 205 1414 "<" "+" "sonaPRP" "g_Orgel_.wav" "Geige___.bmp" "P_g_150_.bmp" "<" 277 "P" "gesp" 150 0 2 22 1 11 11 2 1 3 5 11 3 4 2 1 78 11 237 22 427 1
"289" 1 205 2075 "/" "0" "sonaPRP" "g_Orgel_.wav" "Geige___.bmp" "P_g_150_.bmp" "<" 277 "P" "gesp" 150 0 2 22 1 11 11 2 1 3 5 11 3 4 2 1 78 11 237 22 427 1
"290" 1 206 1175 "<" "+" "sonaPRP" "g_Schwei.wav" "Bohrer__.bmp" "K_g_210_.bmp" "<" 672 "K" "gesp" 210 1500 4 28 2 4 2 2 1 3 1 13 3 4 2 1 4 122 201 28 363 1
"291" 1 206 3000 "-" "1" "sonaPRP" "g_Schwei.wav" "Bohrer__.bmp" "K_g_210_.bmp" "<" 672 "K" "gesp" 210 1500 4 28 2 4 2 2 1 3 1 13 3 4 2 1 4 122 201 28 363 1
"292" 1 207 1264 ">" "+" "sonaPRP" "g_Dudels.wav" "Dudels__.bmp" "Q_n_150_.bmp" ">" 672 "Q" "norm" 150 1500 1 5 2 5 15 2 1 3 5 4 3 4 2 1 37 5 202 275 364 1
"293" 1 207 885 "/" "0" "sonaPRP" "g_Dudels.wav" "Dudels__.bmp" "Q_n_150_.bmp" ">" 672 "Q" "norm" 150 1500 1 5 2 5 15 2 1 3 5 4 3 4 2 1 37 5 202 275 364 1
"294" 1 208 1331 ">" "+" "sonaPRP" "g_Kuh___.wav" "Kuh_____.bmp" "P_n_210_.bmp" ">" 672 "P" "norm" 210 0 1 20 1 20 10 2 1 3 1 9 3 4 2 1 71 157 231 20 418 1
"295" 1 208 3000 "-" "1" "sonaPRP" "g_Kuh___.wav" "Kuh_____.bmp" "P_n_210_.bmp" ">" 672 "P" "norm" 210 0 1 20 1 20 10 2 1 3 1 9 3 4 2 1 71 157 231 20 418 1
"296" 1 209 892 "<" "+" "sonaPRP" "g_Schiff.wav" "Zug_____.bmp" "L_g_150_.bmp" "<" 277 "L" "gesp" 150 1500 2 27 2 32 16 2 1 3 2 13 3 4 2 1 93 32 250 330 27 1
"297" 1 209 953 "/" "5" "sonaPRP" "g_Schiff.wav" "Zug_____.bmp" "L_g_150_.bmp" "<" 277 "L" "gesp" 150 1500 2 27 2 32 16 2 1 3 2 13 3 4 2 1 93 32 250 330 27 1
"298" 1 210 1441 "<" "+" "sonaPRP" "g_Geige_.wav" "Geige___.bmp" "F_g_150_.bmp" "<" 277 "F" "gesp" 150 1500 1 11 2 11 11 2 1 3 5 7 3 4 2 1 50 11 215 293 385 1
"299" 1 210 864 "/" "0" "sonaPRP" "g_Geige_.wav" "Geige___.bmp" "F_g_150_.bmp" "<" 277 "F" "gesp" 150 1500 1 11 2 11 11 2 1 3 5 7 3 4 2 1 50 11 215 293 385 1
"300" 1 211 1240 "/" "4" "sonaPRP" "g_Fahrra.wav" "Auto____.bmp" "Z_n_150_.bmp" ">" 672 "Z" "norm" 150 0 2 9 1 2 3 2 1 3 2 6 3 4 2 1 2 130 9 289 378 1
"301" 1 212 1714 ">" "+" "sonaPRP" "g_Affe__.wav" "Floete__.bmp" "L_n_210_.bmp" ">" 672 "L" "norm" 210 1500 4 1 2 10 10 2 1 3 1 1 3 4 2 1 1 135 10 292 384 1
"302" 1 212 2032 "/" "0" "sonaPRP" "g_Affe__.wav" "Floete__.bmp" "L_n_210_.bmp" ">" 672 "L" "norm" 210 1500 4 1 2 10 10 2 1 3 1 1 3 4 2 1 1 135 10 292 384 1
"303" 1 213 1041 "<" "-" "sonaPRP" "g_Glocke.wav" "Schere__.bmp" "F_n_150_.bmp" ">" 277 "F" "norm" 150 0 4 13 1 26 5 2 1 3 6 7 3 4 2 1 13 176 248 328 26 1
"304" 1 213 1629 "/" "0" "sonaPRP" "g_Glocke.wav" "Schere__.bmp" "F_n_150_.bmp" ">" 277 "F" "norm" 150 0 4 13 1 26 5 2 1 3 6 7 3 4 2 1 13 176 248 328 26 1
"305" 1 214 980 "<" "+" "sonaPRP" "g_Tromme.wav" "Gitarr__.bmp" "P_g_210_.bmp" "<" 672 "P" "gesp" 210 1500 2 30 2 12 4 2 1 3 5 14 3 4 2 1 105 185 12 338 30 1
"306" 1 214 993 "/" "0" "sonaPRP" "g_Tromme.wav" "Gitarr__.bmp" "P_g_210_.bmp" "<" 672 "P" "gesp" 210 1500 2 30 2 12 4 2 1 3 5 14 3 4 2 1 105 185 12 338 30 1
"307" 1 215 1969 ">" "-" "sonaPRP" "g_Zug___.wav" "Esel____.bmp" "B_g_210_.bmp" "<" 277 "B" "gesp" 210 0 3 32 1 8 16 2 1 3 2 15 3 4 2 1 8 32 213 286 376 1
"308" 1 215 2483 "/" "1" "sonaPRP" "g_Zug___.wav" "Esel____.bmp" "B_g_210_.bmp" "<" 277 "B" "gesp" 210 0 3 32 1 8 16 2 1 3 2 15 3 4 2 1 8 32 213 286 376 1
"309" 1 216 1664 ">" "+" "sonaPRP" "g_Besen_.wav" "Kuh_____.bmp" "L_n_150_.bmp" ">" 277 "L" "norm" 150 0 4 3 1 20 1 2 1 3 3 3 3 4 2 1 73 3 233 20 421 1
"310" 1 216 2284 "/" "0" "sonaPRP" "g_Besen_.wav" "Kuh_____.bmp" "L_n_150_.bmp" ">" 277 "L" "norm" 150 0 4 3 1 20 1 2 1 3 3 3 3 4 2 1 73 3 233 20 421 1
"311" 1 217 857 ">" "+" "sonaPRP" "g_Esel__.wav" "Hammer__.bmp" "P_n_150_.bmp" ">" 277 "P" "norm" 150 1500 3 8 2 15 13 2 1 3 1 5 3 4 2 1 8 145 15 307 401 1
"312" 1 217 3000 "-" "1" "sonaPRP" "g_Esel__.wav" "Hammer__.bmp" "P_n_150_.bmp" ">" 277 "P" "norm" 150 1500 3 8 2 15 13 2 1 3 1 5 3 4 2 1 8 145 15 307 401 1
"313" 1 218 1759 "<" "+" "sonaPRP" "g_Hund__.wav" "Pferd___.bmp" "B_g_150_.bmp" "<" 672 "B" "gesp" 150 1500 2 17 2 23 12 2 1 3 1 8 3 4 2 1 17 150 23 309 407 1
"314" 1 218 712 "/" "3" "sonaPRP" "g_Hund__.wav" "Pferd___.bmp" "B_g_150_.bmp" "<" 672 "B" "gesp" 150 1500 2 17 2 23 12 2 1 3 1 8 3 4 2 1 17 150 23 309 407 1
"315" 1 219 972 "<" "-" "sonaPRP" "g_Klinge.wav" "Schere__.bmp" "Z_n_210_.bmp" ">" 277 "Z" "norm" 210 1500 3 19 2 26 5 2 1 3 6 9 3 4 2 1 91 175 19 327 26 1
"316" 1 219 911 "/" "0" "sonaPRP" "g_Klinge.wav" "Schere__.bmp" "Z_n_210_.bmp" ">" 277 "Z" "norm" 210 1500 3 19 2 26 5 2 1 3 6 9 3 4 2 1 91 175 19 327 26 1
"317" 1 220 1054 "<" "-" "sonaPRP" "g_Harfe_.wav" "Ente____.bmp" "Q_n_210_.bmp" ">" 277 "Q" "norm" 210 0 3 16 1 7 8 2 1 3 5 8 3 4 2 1 7 124 210 16 372 1
"318" 1 220 1476 "/" "0" "sonaPRP" "g_Harfe_.wav" "Ente____.bmp" "Q_n_210_.bmp" ">" 277 "Q" "norm" 210 0 3 16 1 7 8 2 1 3 5 8 3 4 2 1 7 124 210 16 372 1
"319" 1 221 1158 ">" "+" "sonaPRP" "g_Saege_.wav" "Affe____.bmp" "K_n_150_.bmp" ">" 277 "K" "norm" 150 1500 4 24 2 1 14 2 1 3 4 12 3 4 2 1 1 116 194 24 351 1
"320" 1 221 985 "/" "0" "sonaPRP" "g_Saege_.wav" "Affe____.bmp" "K_n_150_.bmp" ">" 277 "K" "norm" 150 1500 4 24 2 1 14 2 1 3 4 12 3 4 2 1 1 116 194 24 351 1
"321" 1 222 1600 "<" "+" "sonaPRP" "g_Hammer.wav" "Bohrer__.bmp" "G_g_150_.bmp" "<" 672 "G" "gesp" 150 0 2 15 1 4 7 2 1 3 4 8 3 4 2 1 4 144 15 306 400 1
"322" 1 222 2914 "/" "0" "sonaPRP" "g_Hammer.wav" "Bohrer__.bmp" "G_g_150_.bmp" "<" 672 "G" "gesp" 150 0 2 15 1 4 7 2 1 3 4 8 3 4 2 1 4 144 15 306 400 1
"323" 1 223 1128 ">" "+" "sonaPRP" "g_Ente__.wav" "Klinge__.bmp" "B_n_210_.bmp" ">" 277 "B" "norm" 210 1500 4 7 2 19 6 2 1 3 1 5 3 4 2 1 7 156 19 317 417 1
"324" 1 223 1481 "/" "1" "sonaPRP" "g_Ente__.wav" "Klinge__.bmp" "B_n_210_.bmp" ">" 277 "B" "norm" 210 1500 4 7 2 19 6 2 1 3 1 5 3 4 2 1 7 156 19 317 417 1
"325" 1 224 1152 "<" "+" "sonaPRP" "g_Pferd_.wav" "Tromme__.bmp" "Q_g_150_.bmp" "<" 672 "Q" "gesp" 150 0 3 23 1 30 12 2 1 3 1 6 3 4 2 1 106 186 23 339 30 1
"326" 1 224 2103 "/" "0" "sonaPRP" "g_Pferd_.wav" "Tromme__.bmp" "Q_g_150_.bmp" "<" 672 "Q" "gesp" 150 0 3 23 1 30 12 2 1 3 1 6 3 4 2 1 106 186 23 339 30 1
"327" 1 225 1023 ">" "+" "sonaPRP" "g_Auto__.wav" "Auto____.bmp" "G_n_150_.bmp" ">" 672 "G" "norm" 150 1500 1 2 2 2 3 2 1 3 2 2 3 4 2 1 2 117 195 265 352 1
"328" 1 225 793 "/" "0" "sonaPRP" "g_Auto__.wav" "Auto____.bmp" "G_n_150_.bmp" ">" 672 "G" "norm" 150 1500 1 2 2 2 3 2 1 3 2 2 3 4 2 1 2 117 195 265 352 1
"329" 1 226 1079 ">" "+" "sonaPRP" "g_Katze_.wav" "Glocke__.bmp" "B_n_150_.bmp" ">" 672 "B" "norm" 150 0 4 18 1 13 9 2 1 3 1 9 3 4 2 1 13 142 18 301 395 1
"330" 1 226 1930 "/" "0" "sonaPRP" "g_Katze_.wav" "Glocke__.bmp" "B_n_150_.bmp" ">" 672 "B" "norm" 150 0 4 18 1 13 9 2 1 3 1 9 3 4 2 1 13 142 18 301 395 1
"331" 1 227 1961 ">" "-" "sonaPRP" "g_Trompe.wav" "Dudels__.bmp" "Z_g_210_.bmp" "<" 277 "Z" "gesp" 210 0 2 31 1 5 15 2 1 3 5 14 3 4 2 1 108 5 258 342 31 1
"332" 1 227 2088 "/" "4" "sonaPRP" "g_Trompe.wav" "Dudels__.bmp" "Z_g_210_.bmp" "<" 277 "Z" "gesp" 210 0 2 31 1 5 15 2 1 3 5 14 3 4 2 1 108 5 258 342 31 1
"333" 1 228 1065 "<" "+" "sonaPRP" "g_Schaf_.wav" "Hammer__.bmp" "K_g_150_.bmp" "<" 277 "K" "gesp" 150 0 4 25 1 15 13 2 1 3 1 13 3 4 2 1 60 146 15 25 402 1
"334" 1 228 1570 "/" "3" "sonaPRP" "g_Schaf_.wav" "Hammer__.bmp" "K_g_150_.bmp" "<" 277 "K" "gesp" 150 0 4 25 1 15 13 2 1 3 1 13 3 4 2 1 60 146 15 25 402 1
"335" 1 229 1210 "<" "+" "sonaPRP" "g_Floete.wav" "Harfe___.bmp" "G_g_210_.bmp" "<" 277 "G" "gesp" 210 1500 2 10 2 16 8 2 1 3 5 6 3 4 2 1 48 133 10 16 382 1
"336" 1 229 2072 "/" "0" "sonaPRP" "g_Floete.wav" "Harfe___.bmp" "G_g_210_.bmp" "<" 277 "G" "gesp" 210 1500 2 10 2 16 8 2 1 3 5 6 3 4 2 1 48 133 10 16 382 1
"337" 1 230 827 ">" "+" "sonaPRP" "g_Bohrer.wav" "Bohrer__.bmp" "F_n_210_.bmp" ">" 672 "F" "norm" 210 1500 1 4 2 4 7 2 1 3 4 3 3 4 2 1 4 120 199 272 360 1
"338" 1 230 1057 "/" "0" "sonaPRP" "g_Bohrer.wav" "Bohrer__.bmp" "F_n_210_.bmp" ">" 672 "F" "norm" 210 1500 1 4 2 4 7 2 1 3 4 3 3 4 2 1 4 120 199 272 360 1
"339" 1 231 933 ">" "+" "sonaPRP" "g_Gitarr.wav" "Tromme__.bmp" "K_n_210_.bmp" ">" 672 "K" "norm" 210 0 2 12 1 30 4 2 1 4 5 7 4 2 1 3 54 137 12 296 30 1
"340" 1 231 1756 "/" "0" "sonaPRP" "g_Gitarr.wav" "Tromme__.bmp" "K_n_210_.bmp" ">" 672 "K" "norm" 210 0 2 12 1 30 4 2 1 4 5 7 4 2 1 3 54 137 12 296 30 1
"341" 1 232 1024 ">" "+" "sonaPRP" "g_Katze_.wav" "Schiff__.bmp" "B_n_150_.bmp" ">" 672 "B" "norm" 150 0 3 18 1 27 9 2 1 4 1 9 4 2 1 3 94 178 18 331 27 1
"342" 1 232 2273 "/" "0" "sonaPRP" "g_Katze_.wav" "Schiff__.bmp" "B_n_150_.bmp" ">" 672 "B" "norm" 150 0 3 18 1 27 9 2 1 4 1 9 4 2 1 3 94 178 18 331 27 1
"343" 1 233 1611 ">" "-" "sonaPRP" "g_Trompe.wav" "Trompe__.bmp" "Z_g_210_.bmp" "<" 277 "Z" "gesp" 210 0 1 31 1 31 15 2 1 4 5 14 4 2 1 3 107 188 257 341 31 1
"344" 1 233 2408 "/" "0" "sonaPRP" "g_Trompe.wav" "Trompe__.bmp" "Z_g_210_.bmp" "<" 277 "Z" "gesp" 210 0 1 31 1 31 15 2 1 4 5 14 4 2 1 3 107 188 257 341 31 1
"345" 1 234 791 ">" "+" "sonaPRP" "g_Affe__.wav" "Gitarr__.bmp" "L_n_210_.bmp" ">" 672 "L" "norm" 210 1500 3 1 2 12 10 2 1 4 1 1 4 2 1 3 1 138 12 297 390 1
"346" 1 234 1385 "/" "0" "sonaPRP" "g_Affe__.wav" "Gitarr__.bmp" "L_n_210_.bmp" ">" 672 "L" "norm" 210 1500 3 1 2 12 10 2 1 4 1 1 4 2 1 3 1 138 12 297 390 1
"347" 1 235 1299 "<" "+" "sonaPRP" "g_Hammer.wav" "Hammer__.bmp" "G_g_150_.bmp" "<" 672 "G" "gesp" 150 0 1 15 1 15 7 2 1 4 4 8 4 2 1 3 59 143 15 305 399 1
"348" 1 235 1303 "/" "4" "sonaPRP" "g_Hammer.wav" "Hammer__.bmp" "G_g_150_.bmp" "<" 672 "G" "gesp" 150 0 1 15 1 15 7 2 1 4 4 8 4 2 1 3 59 143 15 305 399 1
"349" 1 236 1575 ">" "+" "sonaPRP" "g_Klinge.wav" "Glocke__.bmp" "Z_n_210_.bmp" ">" 277 "Z" "norm" 210 1500 2 19 2 13 5 2 1 4 6 9 4 2 1 3 13 155 19 315 415 1
"350" 1 236 264 "/" "4" "sonaPRP" "g_Klinge.wav" "Glocke__.bmp" "Z_n_210_.bmp" ">" 277 "Z" "norm" 210 1500 2 19 2 13 5 2 1 4 6 9 4 2 1 3 13 155 19 315 415 1
"351" 1 237 779 "<" "+" "sonaPRP" "g_Tromme.wav" "Tromme__.bmp" "P_g_210_.bmp" "<" 672 "P" "gesp" 210 1500 1 30 2 30 4 2 1 4 5 14 4 2 1 3 104 184 255 337 30 1
"352" 1 237 1172 "/" "0" "sonaPRP" "g_Tromme.wav" "Tromme__.bmp" "P_g_210_.bmp" "<" 672 "P" "gesp" 210 1500 1 30 2 30 4 2 1 4 5 14 4 2 1 3 104 184 255 337 30 1
"353" 1 238 1148 ">" "+" "sonaPRP" "g_Harfe_.wav" "Floete__.bmp" "Q_n_210_.bmp" ">" 277 "Q" "norm" 210 0 2 16 1 10 8 2 1 4 5 8 4 2 1 3 62 449 10 16 404 1
"354" 1 238 2433 "/" "0" "sonaPRP" "g_Harfe_.wav" "Floete__.bmp" "Q_n_210_.bmp" ">" 277 "Q" "norm" 210 0 2 16 1 10 8 2 1 4 5 8 4 2 1 3 62 449 10 16 404 1
"355" 1 239 1693 ">" "+" "sonaPRP" "g_Fahrra.wav" "Fahrra__.bmp" "Z_n_150_.bmp" ">" 672 "Z" "norm" 150 0 1 9 1 9 3 2 1 4 2 6 4 2 1 3 44 129 9 288 377 1
"356" 1 239 2645 "/" "0" "sonaPRP" "g_Fahrra.wav" "Fahrra__.bmp" "Z_n_150_.bmp" ">" 672 "Z" "norm" 150 0 1 9 1 9 3 2 1 4 2 6 4 2 1 3 44 129 9 288 377 1
"357" 1 240 1471 "<" "+" "sonaPRP" "g_Orgel_.wav" "Orgel___.bmp" "P_g_150_.bmp" "<" 277 "P" "gesp" 150 0 1 22 1 22 11 2 1 4 5 11 4 2 1 3 77 160 236 22 426 1
"358" 1 240 2003 "/" "0" "sonaPRP" "g_Orgel_.wav" "Orgel___.bmp" "P_g_150_.bmp" "<" 277 "P" "gesp" 150 0 1 22 1 22 11 2 1 4 5 11 4 2 1 3 77 160 236 22 426 1
"359" 1 241 1927 "<" "-" "sonaPRP" "g_Dudels.wav" "Staubs__.bmp" "Q_n_150_.bmp" ">" 672 "Q" "norm" 150 1500 4 5 2 29 15 2 1 4 5 4 4 2 1 3 103 5 29 336 445 1
"360" 1 241 2774 "/" "0" "sonaPRP" "g_Dudels.wav" "Staubs__.bmp" "Q_n_150_.bmp" ">" 672 "Q" "norm" 150 1500 4 5 2 29 15 2 1 4 5 4 4 2 1 3 103 5 29 336 445 1
"361" 1 242 1542 "<" "+" "sonaPRP" "g_Zug___.wav" "Schiff__.bmp" "B_g_210_.bmp" "<" 277 "B" "gesp" 210 0 2 32 1 27 16 2 1 4 2 15 4 2 1 3 111 32 261 346 27 1
"362" 1 242 3000 "-" "4" "sonaPRP" "g_Zug___.wav" "Schiff__.bmp" "B_g_210_.bmp" "<" 277 "B" "gesp" 210 0 2 32 1 27 16 2 1 4 2 15 4 2 1 3 111 32 261 346 27 1
"363" 1 243 1852 "<" "+" "sonaPRP" "g_Hahn__.wav" "Orgel___.bmp" "F_g_210_.bmp" "<" 672 "F" "gesp" 210 0 4 14 1 22 6 2 1 4 1 8 4 2 1 3 79 14 239 22 429 1
"364" 1 243 3000 "-" "4" "sonaPRP" "g_Hahn__.wav" "Orgel___.bmp" "F_g_210_.bmp" "<" 672 "F" "gesp" 210 0 4 14 1 22 6 2 1 4 1 8 4 2 1 3 79 14 239 22 429 1
"365" 1 244 1335 "<" "-" "sonaPRP" "g_Esel__.wav" "Schaf___.bmp" "P_n_150_.bmp" ">" 277 "P" "norm" 150 1500 2 8 2 25 13 2 1 4 1 5 4 2 1 3 8 127 212 25 375 1
"366" 1 244 3000 "-" "1" "sonaPRP" "g_Esel__.wav" "Schaf___.bmp" "P_n_150_.bmp" ">" 277 "P" "norm" 150 1500 2 8 2 25 13 2 1 4 1 5 4 2 1 3 8 127 212 25 375 1
"367" 1 245 1925 ">" "+" "sonaPRP" "g_Besen_.wav" "Auto____.bmp" "L_n_150_.bmp" ">" 277 "L" "norm" 150 0 3 3 1 2 1 2 1 4 3 3 4 2 1 3 2 3 196 267 354 1
"368" 1 245 2387 "/" "0" "sonaPRP" "g_Besen_.wav" "Auto____.bmp" "L_n_150_.bmp" ">" 277 "L" "norm" 150 0 3 3 1 2 1 2 1 4 3 3 4 2 1 3 2 3 196 267 354 1
"369" 1 246 1877 "<" "+" "sonaPRP" "g_Geige_.wav" "Hund____.bmp" "F_g_150_.bmp" "<" 277 "F" "gesp" 150 1500 4 11 2 17 11 2 1 4 5 7 4 2 1 3 17 11 230 310 409 1
"370" 1 246 1186 "/" "0" "sonaPRP" "g_Geige_.wav" "Hund____.bmp" "F_g_150_.bmp" "<" 277 "F" "gesp" 150 1500 4 11 2 17 11 2 1 4 5 7 4 2 1 3 17 11 230 310 409 1
"371" 1 247 898 "<" "+" "sonaPRP" "g_Schwei.wav" "Fahrra__.bmp" "K_g_210_.bmp" "<" 672 "K" "gesp" 210 1500 3 28 2 9 2 2 1 4 1 13 4 2 1 3 45 131 9 28 379 1
"372" 1 247 1590 "/" "0" "sonaPRP" "g_Schwei.wav" "Fahrra__.bmp" "K_g_210_.bmp" "<" 672 "K" "gesp" 210 1500 3 28 2 9 2 2 1 4 1 13 4 2 1 3 45 131 9 28 379 1
"373" 1 248 1236 "<" "+" "sonaPRP" "g_Floete.wav" "Floete__.bmp" "G_g_210_.bmp" "<" 277 "G" "gesp" 210 1500 1 10 2 10 8 2 1 4 5 6 4 2 1 3 47 132 10 291 381 1
"374" 1 248 1011 "/" "0" "sonaPRP" "g_Floete.wav" "Floete__.bmp" "G_g_210_.bmp" "<" 277 "G" "gesp" 210 1500 1 10 2 10 8 2 1 4 5 6 4 2 1 3 47 132 10 291 381 1
"375" 1 249 1141 ">" "+" "sonaPRP" "g_Glocke.wav" "Schwei__.bmp" "F_n_150_.bmp" ">" 277 "F" "norm" 150 0 3 13 1 28 5 2 1 4 6 7 4 2 1 3 13 180 254 28 441 1
"376" 1 249 2014 "/" "0" "sonaPRP" "g_Glocke.wav" "Schwei__.bmp" "F_n_150_.bmp" ">" 277 "F" "norm" 150 0 3 13 1 28 5 2 1 4 6 7 4 2 1 3 13 180 254 28 441 1
"377" 1 250 1260 "<" "+" "sonaPRP" "g_Schiff.wav" "Schiff__.bmp" "L_g_150_.bmp" "<" 277 "L" "gesp" 150 1500 1 27 2 27 16 2 1 4 2 13 4 2 1 3 92 177 249 329 27 1
"378" 1 250 1258 "/" "0" "sonaPRP" "g_Schiff.wav" "Schiff__.bmp" "L_g_150_.bmp" "<" 277 "L" "gesp" 150 1500 1 27 2 27 16 2 1 4 2 13 4 2 1 3 92 177 249 329 27 1
"379" 1 251 952 "<" "+" "sonaPRP" "g_Pferd_.wav" "Hund____.bmp" "Q_g_150_.bmp" "<" 672 "Q" "gesp" 150 0 2 23 1 17 12 2 1 4 1 6 4 2 1 3 17 163 23 323 431 1
"380" 1 251 3000 "-" "1" "sonaPRP" "g_Pferd_.wav" "Hund____.bmp" "Q_g_150_.bmp" "<" 672 "Q" "gesp" 150 0 2 23 1 17 12 2 1 4 1 6 4 2 1 3 17 163 23 323 431 1
"381" 1 252 1025 ">" "+" "sonaPRP" "g_Kuh___.wav" "Gitarr__.bmp" "P_n_210_.bmp" ">" 672 "P" "norm" 210 0 4 20 1 12 10 2 1 4 1 9 4 2 1 3 55 139 12 20 391 1
"382" 1 252 3000 "-" "1" "sonaPRP" "g_Kuh___.wav" "Gitarr__.bmp" "P_n_210_.bmp" ">" 672 "P" "norm" 210 0 4 20 1 12 10 2 1 4 1 9 4 2 1 3 55 139 12 20 391 1
"383" 1 253 1105 ">" "+" "sonaPRP" "g_Saege_.wav" "Hahn____.bmp" "K_n_150_.bmp" ">" 277 "K" "norm" 150 1500 3 24 2 14 14 2 1 4 4 12 4 2 1 3 57 14 223 24 398 1
"384" 1 253 976 "/" "0" "sonaPRP" "g_Saege_.wav" "Hahn____.bmp" "K_n_150_.bmp" ">" 277 "K" "norm" 150 1500 3 24 2 14 14 2 1 4 4 12 4 2 1 3 57 14 223 24 398 1
"385" 1 254 698 "<" "+" "sonaPRP" "g_Loewe_.wav" "Katze___.bmp" "Q_g_210_.bmp" "<" 277 "Q" "gesp" 210 1500 2 21 2 18 9 2 1 4 1 10 4 2 1 3 75 21 18 319 423 1
"386" 1 254 1050 "/" "0" "sonaPRP" "g_Loewe_.wav" "Katze___.bmp" "Q_g_210_.bmp" "<" 277 "Q" "gesp" 210 1500 2 21 2 18 9 2 1 4 1 10 4 2 1 3 75 21 18 319 423 1
"387" 1 255 1211 ">" "-" "sonaPRP" "g_Staubs.wav" "Besen___.bmp" "Z_g_150_.bmp" "<" 672 "Z" "gesp" 150 1500 2 29 2 3 1 2 1 4 3 13 4 2 1 3 100 3 29 334 444 1
"388" 1 255 784 "/" "0" "sonaPRP" "g_Staubs.wav" "Besen___.bmp" "Z_g_150_.bmp" "<" 672 "Z" "gesp" 150 1500 2 29 2 3 1 2 1 4 3 13 4 2 1 3 100 3 29 334 444 1
"389" 1 256 1338 "<" "-" "sonaPRP" "g_Elefan.wav" "Fahrra__.bmp" "G_n_210_.bmp" ">" 277 "G" "norm" 210 0 4 6 1 9 2 2 1 4 1 5 4 2 1 3 46 6 9 290 380 1
"390" 1 256 2177 "/" "0" "sonaPRP" "g_Elefan.wav" "Fahrra__.bmp" "G_n_210_.bmp" ">" 277 "G" "norm" 210 0 4 6 1 9 2 2 1 4 1 5 4 2 1 3 46 6 9 290 380 1
"391" 1 257 1649 "<" "+" "sonaPRP" "g_Hund__.wav" "Hund____.bmp" "B_g_150_.bmp" "<" 672 "B" "gesp" 150 1500 1 17 2 17 12 2 1 4 1 8 4 2 1 3 17 149 228 308 406 1
"392" 1 257 1096 "/" "0" "sonaPRP" "g_Hund__.wav" "Hund____.bmp" "B_g_150_.bmp" "<" 672 "B" "gesp" 150 1500 1 17 2 17 12 2 1 4 1 8 4 2 1 3 17 149 228 308 406 1
"393" 1 258 922 ">" "-" "sonaPRP" "g_Schere.wav" "Hahn____.bmp" "L_g_210_.bmp" "<" 672 "L" "gesp" 210 0 4 26 1 14 14 2 1 4 4 13 4 2 1 3 58 14 224 304 26 1
"394" 1 258 1449 "/" "0" "sonaPRP" "g_Schere.wav" "Hahn____.bmp" "L_g_210_.bmp" "<" 672 "L" "gesp" 210 0 4 26 1 14 14 2 1 4 4 13 4 2 1 3 58 14 224 304 26 1
"395" 1 259 1387 "<" "-" "sonaPRP" "g_Auto__.wav" "Loewe___.bmp" "G_n_150_.bmp" ">" 672 "G" "norm" 150 1500 4 2 2 21 3 2 1 4 2 2 4 2 1 3 2 21 235 321 425 1
"396" 1 259 751 "/" "0" "sonaPRP" "g_Auto__.wav" "Loewe___.bmp" "G_n_150_.bmp" ">" 672 "G" "norm" 150 1500 4 2 2 21 3 2 1 4 2 2 4 2 1 3 2 21 235 321 425 1
"397" 1 260 2837 ">" "+" "sonaPRP" "g_Ente__.wav" "Orgel___.bmp" "B_n_210_.bmp" ">" 277 "B" "norm" 210 1500 3 7 2 22 6 2 1 4 1 5 4 2 1 3 7 161 238 22 428 1
"398" 1 260 2432 "/" "0" "sonaPRP" "g_Ente__.wav" "Orgel___.bmp" "B_n_210_.bmp" ">" 277 "B" "norm" 210 1500 3 7 2 22 6 2 1 4 1 5 4 2 1 3 7 161 238 22 428 1
"399" 1 261 786 ">" "+" "sonaPRP" "g_Bohrer.wav" "Dudels__.bmp" "F_n_210_.bmp" ">" 672 "F" "norm" 210 1500 4 4 2 5 7 2 1 4 4 3 4 2 1 3 4 5 204 278 366 1
"400" 1 261 1652 "/" "0" "sonaPRP" "g_Bohrer.wav" "Dudels__.bmp" "F_n_210_.bmp" ">" 672 "F" "norm" 210 1500 4 4 2 5 7 2 1 4 4 3 4 2 1 3 4 5 204 278 366 1
"401" 1 262 1185 "<" "+" "sonaPRP" "g_Schaf_.wav" "Geige___.bmp" "K_g_150_.bmp" "<" 277 "K" "gesp" 150 0 3 25 1 11 13 2 1 4 1 13 4 2 1 3 52 11 217 25 387 1
"402" 1 262 3000 "-" "1" "sonaPRP" "g_Schaf_.wav" "Geige___.bmp" "K_g_150_.bmp" "<" 277 "K" "gesp" 150 0 3 25 1 11 13 2 1 4 1 13 4 2 1 3 52 11 217 25 387 1
"403" 1 265 1540 ">" "+" "sonaPRP" "g_Kanone.wav" "Frosch__.bmp" "B_n_210_.bmp" ">" 277 "B" "norm" 210 1500 5 92 9 90 0 0 0 0 7 9 0 0 0 0 470 472 474 476 478 1
"404" 1 265 1192 "/" "0" "sonaPRP" "g_Kanone.wav" "Frosch__.bmp" "B_n_210_.bmp" ">" 277 "B" "norm" 210 1500 5 92 9 90 0 0 0 0 7 9 0 0 0 0 470 472 474 476 478 1
"405" 1 266 914 "<" "+" "sonaPRP" "g_Pfeife.wav" "Pistol__.bmp" "K_g_150_.bmp" "<" 672 "K" "gesp" 150 0 6 93 9 94 0 0 0 0 6 6 0 0 0 0 471 473 475 477 479 1
"406" 1 266 1359 "/" "0" "sonaPRP" "g_Pfeife.wav" "Pistol__.bmp" "K_g_150_.bmp" "<" 672 "K" "gesp" 150 0 6 93 9 94 0 0 0 0 6 6 0 0 0 0 471 473 475 477 479 1
"407" 1 267 628 ">" "+" "sonaPRP" "g_Kuh___.wav" "Floete__.bmp" "P_n_210_.bmp" ">" 672 "P" "norm" 210 1500 3 20 1 10 10 3 2 5 1 9 2 1 3 4 49 134 10 20 383 1
"408" 1 267 2260 "/" "0" "sonaPRP" "g_Kuh___.wav" "Floete__.bmp" "P_n_210_.bmp" ">" 672 "P" "norm" 210 1500 3 20 1 10 10 3 2 5 1 9 2 1 3 4 49 134 10 20 383 1
"409" 1 268 709 "<" "+" "sonaPRP" "g_Zug___.wav" "Zug_____.bmp" "B_g_210_.bmp" "<" 277 "B" "gesp" 210 1500 1 32 1 32 16 3 2 5 2 15 2 1 3 4 110 32 260 345 446 1
"410" 1 268 937 "/" "0" "sonaPRP" "g_Zug___.wav" "Zug_____.bmp" "B_g_210_.bmp" "<" 277 "B" "gesp" 210 1500 1 32 1 32 16 3 2 5 2 15 2 1 3 4 110 32 260 345 446 1
"411" 1 269 753 "<" "+" "sonaPRP" "g_Schwei.wav" "Elefan__.bmp" "K_g_210_.bmp" "<" 672 "K" "gesp" 210 0 2 28 2 6 2 3 2 5 1 13 2 1 3 4 97 6 253 28 440 1
"412" 1 269 2501 "/" "0" "sonaPRP" "g_Schwei.wav" "Elefan__.bmp" "K_g_210_.bmp" "<" 672 "K" "gesp" 210 0 2 28 2 6 2 3 2 5 1 13 2 1 3 4 97 6 253 28 440 1
"413" 1 270 1021 ">" "-" "sonaPRP" "g_Geige_.wav" "Katze___.bmp" "F_g_150_.bmp" "<" 277 "F" "gesp" 150 0 3 11 2 18 11 3 2 5 5 7 2 1 3 4 67 11 18 313 412 1
"414" 1 270 1592 "/" "0" "sonaPRP" "g_Geige_.wav" "Katze___.bmp" "F_g_150_.bmp" "<" 277 "F" "gesp" 150 0 3 11 2 18 11 3 2 5 5 7 2 1 3 4 67 11 18 313 412 1
"415" 1 271 857 "<" "-" "sonaPRP" "g_Besen_.wav" "Staubs__.bmp" "L_n_150_.bmp" ">" 277 "L" "norm" 150 1500 2 3 1 29 1 3 2 5 3 3 2 1 3 4 34 3 29 270 357 1
"416" 1 271 1015 "/" "0" "sonaPRP" "g_Besen_.wav" "Staubs__.bmp" "L_n_150_.bmp" ">" 277 "L" "norm" 150 1500 2 3 1 29 1 3 2 5 3 3 2 1 3 4 34 3 29 270 357 1
"417" 1 272 1643 "<" "-" "sonaPRP" "g_Fahrra.wav" "Schaf___.bmp" "Z_n_150_.bmp" ">" 672 "Z" "norm" 150 1500 4 9 1 25 3 3 2 5 2 6 2 1 3 4 88 172 9 25 438 1
"418" 1 272 687 "/" "1" "sonaPRP" "g_Fahrra.wav" "Schaf___.bmp" "Z_n_150_.bmp" ">" 672 "Z" "norm" 150 1500 4 9 1 25 3 3 2 5 2 6 2 1 3 4 88 172 9 25 438 1
"419" 1 273 1077 ">" "+" "sonaPRP" "g_Bohrer.wav" "Trompe__.bmp" "F_n_210_.bmp" ">" 672 "F" "norm" 210 0 3 4 2 31 7 3 2 5 4 3 2 1 3 4 4 189 259 343 31 1
"420" 1 273 2115 "/" "0" "sonaPRP" "g_Bohrer.wav" "Trompe__.bmp" "F_n_210_.bmp" ">" 672 "F" "norm" 210 0 3 4 2 31 7 3 2 5 4 3 2 1 3 4 4 189 259 343 31 1
"421" 1 274 606 "<" "+" "sonaPRP" "g_Schere.wav" "Affe____.bmp" "L_g_210_.bmp" "<" 672 "L" "gesp" 210 1500 3 26 1 1 14 3 2 5 4 13 2 1 3 4 1 115 193 264 26 1
"422" 1 274 557 "/" "3" "sonaPRP" "g_Schere.wav" "Affe____.bmp" "L_g_210_.bmp" "<" 672 "L" "gesp" 210 1500 3 26 1 1 14 3 2 5 4 13 2 1 3 4 1 115 193 264 26 1
"423" 1 275 1385 "<" "-" "sonaPRP" "g_Esel__.wav" "Esel____.bmp" "P_n_150_.bmp" ">" 277 "P" "norm" 150 0 1 8 2 8 13 3 2 5 1 5 2 1 3 4 8 126 211 285 374 1
"424" 1 275 2316 "/" "0" "sonaPRP" "g_Esel__.wav" "Esel____.bmp" "P_n_150_.bmp" ">" 277 "P" "norm" 150 0 1 8 2 8 13 3 2 5 1 5 2 1 3 4 8 126 211 285 374 1
"425" 1 276 1723 "<" "+" "sonaPRP" "g_Staubs.wav" "Staubs__.bmp" "Z_g_150_.bmp" "<" 672 "Z" "gesp" 150 0 1 29 2 29 1 3 2 5 3 13 2 1 3 4 99 182 29 333 443 1
"426" 1 276 2770 "/" "0" "sonaPRP" "g_Staubs.wav" "Staubs__.bmp" "Z_g_150_.bmp" "<" 672 "Z" "gesp" 150 0 1 29 2 29 1 3 2 5 3 13 2 1 3 4 99 182 29 333 443 1
"427" 1 277 1207 ">" "+" "sonaPRP" "g_Affe__.wav" "Kuh_____.bmp" "L_n_210_.bmp" ">" 672 "L" "norm" 210 0 2 1 2 20 10 3 2 5 1 1 2 1 3 4 1 114 192 20 350 1
"428" 1 277 2171 "/" "0" "sonaPRP" "g_Affe__.wav" "Kuh_____.bmp" "L_n_210_.bmp" ">" 672 "L" "norm" 210 0 2 1 2 20 10 3 2 5 1 1 2 1 3 4 1 114 192 20 350 1
"429" 1 278 787 "<" "+" "sonaPRP" "g_Orgel_.wav" "Katze___.bmp" "P_g_150_.bmp" "<" 277 "P" "gesp" 150 1500 4 22 1 18 11 3 2 5 5 11 2 1 3 4 68 153 18 22 413 1
"430" 1 278 648 "/" "0" "sonaPRP" "g_Orgel_.wav" "Katze___.bmp" "P_g_150_.bmp" "<" 277 "P" "gesp" 150 1500 4 22 1 18 11 3 2 5 5 11 2 1 3 4 68 153 18 22 413 1
"431" 1 279 841 "<" "-" "sonaPRP" "g_Klinge.wav" "Klinge__.bmp" "Z_n_210_.bmp" ">" 277 "Z" "norm" 210 0 1 19 2 19 5 3 2 5 6 9 2 1 3 4 69 154 19 314 414 1
"432" 1 279 1727 "/" "0" "sonaPRP" "g_Klinge.wav" "Klinge__.bmp" "Z_n_210_.bmp" ">" 277 "Z" "norm" 210 0 1 19 2 19 5 3 2 5 6 9 2 1 3 4 69 154 19 314 414 1
"433" 1 280 849 "<" "+" "sonaPRP" "g_Loewe_.wav" "Loewe___.bmp" "Q_g_210_.bmp" "<" 277 "Q" "gesp" 210 0 1 21 2 21 9 3 2 5 1 10 2 1 3 4 74 21 234 318 422 1
"434" 1 280 1330 "/" "0" "sonaPRP" "g_Loewe_.wav" "Loewe___.bmp" "Q_g_210_.bmp" "<" 277 "Q" "gesp" 210 0 1 21 2 21 9 3 2 5 1 10 2 1 3 4 74 21 234 318 422 1
"435" 1 281 967 ">" "-" "sonaPRP" "g_Tromme.wav" "Saege___.bmp" "P_g_210_.bmp" "<" 672 "P" "gesp" 210 0 4 30 2 24 4 3 2 5 5 14 2 1 3 4 86 168 242 24 30 1
"436" 1 281 2235 "/" "0" "sonaPRP" "g_Tromme.wav" "Saege___.bmp" "P_g_210_.bmp" "<" 672 "P" "gesp" 210 0 4 30 2 24 4 3 2 5 5 14 2 1 3 4 86 168 242 24 30 1
"437" 1 282 950 ">" "+" "sonaPRP" "g_Glocke.wav" "Klinge__.bmp" "F_n_150_.bmp" ">" 277 "F" "norm" 150 1500 2 13 1 19 5 3 2 5 6 7 2 1 3 4 13 141 19 299 393 1
"438" 1 282 1072 "/" "0" "sonaPRP" "g_Glocke.wav" "Klinge__.bmp" "F_n_150_.bmp" ">" 277 "F" "norm" 150 1500 2 13 1 19 5 3 2 5 6 7 2 1 3 4 13 141 19 299 393 1
"439" 1 283 1000 "<" "-" "sonaPRP" "g_Saege_.wav" "Schere__.bmp" "K_n_150_.bmp" ">" 277 "K" "norm" 150 0 2 24 2 26 14 3 2 5 4 12 2 1 3 4 84 166 241 24 26 1
"440" 1 283 1908 "/" "0" "sonaPRP" "g_Saege_.wav" "Schere__.bmp" "K_n_150_.bmp" ">" 277 "K" "norm" 150 0 2 24 2 26 14 3 2 5 4 12 2 1 3 4 84 166 241 24 26 1
"441" 1 284 1777 "<" "+" "sonaPRP" "g_Floete.wav" "Ente____.bmp" "G_g_210_.bmp" "<" 277 "G" "gesp" 210 0 4 10 2 7 8 3 2 5 5 6 2 1 3 4 7 125 10 284 373 1
"442" 1 284 1783 "/" "4" "sonaPRP" "g_Floete.wav" "Ente____.bmp" "G_g_210_.bmp" "<" 277 "G" "gesp" 210 0 4 10 2 7 8 3 2 5 5 6 2 1 3 4 7 125 10 284 373 1
"443" 1 285 1132 "<" "-" "sonaPRP" "g_Katze_.wav" "Loewe___.bmp" "B_n_150_.bmp" ">" 672 "B" "norm" 150 1500 2 18 1 21 9 3 2 5 1 9 2 1 3 4 66 21 18 312 411 1
"444" 1 285 1720 "/" "0" "sonaPRP" "g_Katze_.wav" "Loewe___.bmp" "B_n_150_.bmp" ">" 672 "B" "norm" 150 1500 2 18 1 21 9 3 2 5 1 9 2 1 3 4 66 21 18 312 411 1
"445" 1 286 1829 "<" "+" "sonaPRP" "g_Schaf_.wav" "Esel____.bmp" "K_g_150_.bmp" "<" 277 "K" "gesp" 150 1500 2 25 1 8 13 3 2 5 1 13 2 1 3 4 8 170 244 25 436 1
"446" 1 286 2776 "/" "0" "sonaPRP" "g_Schaf_.wav" "Esel____.bmp" "K_g_150_.bmp" "<" 277 "K" "gesp" 150 1500 2 25 1 8 13 3 2 5 1 13 2 1 3 4 8 170 244 25 436 1
"447" 1 287 1451 "<" "-" "sonaPRP" "g_Harfe_.wav" "Harfe___.bmp" "Q_n_210_.bmp" ">" 277 "Q" "norm" 210 1500 1 16 1 16 8 3 2 5 5 8 2 1 3 4 61 147 225 16 403 1
"448" 1 287 759 "/" "0" "sonaPRP" "g_Harfe_.wav" "Harfe___.bmp" "Q_n_210_.bmp" ">" 277 "Q" "norm" 210 1500 1 16 1 16 8 3 2 5 5 8 2 1 3 4 61 147 225 16 403 1
"449" 1 288 1858 ">" "+" "sonaPRP" "g_Auto__.wav" "Schaf___.bmp" "G_n_150_.bmp" ">" 672 "G" "norm" 150 0 3 2 2 25 3 3 2 5 2 2 2 1 3 4 2 171 245 25 437 1
"450" 1 288 2641 "/" "0" "sonaPRP" "g_Auto__.wav" "Schaf___.bmp" "G_n_150_.bmp" ">" 672 "G" "norm" 150 0 3 2 2 25 3 3 2 5 2 2 2 1 3 4 2 171 245 25 437 1
"451" 1 289 1061 ">" "+" "sonaPRP" "g_Ente__.wav" "Hahn____.bmp" "B_n_210_.bmp" ">" 277 "B" "norm" 210 0 2 7 2 14 6 3 2 5 1 5 2 1 3 4 7 14 209 283 371 1
"452" 1 289 1864 "/" "5" "sonaPRP" "g_Ente__.wav" "Hahn____.bmp" "B_n_210_.bmp" ">" 277 "B" "norm" 210 0 2 7 2 14 6 3 2 5 1 5 2 1 3 4 7 14 209 283 371 1
"453" 1 290 933 "<" "+" "sonaPRP" "g_Pferd_.wav" "Pferd___.bmp" "Q_g_150_.bmp" "<" 672 "Q" "gesp" 150 1500 1 23 1 23 12 3 2 5 1 6 2 1 3 4 80 162 23 322 430 1
"454" 1 290 1062 "/" "0" "sonaPRP" "g_Pferd_.wav" "Pferd___.bmp" "Q_g_150_.bmp" "<" 672 "Q" "gesp" 150 1500 1 23 1 23 12 3 2 5 1 6 2 1 3 4 80 162 23 322 430 1
"455" 1 291 942 ">" "-" "sonaPRP" "g_Hammer.wav" "Trompe__.bmp" "G_g_150_.bmp" "<" 672 "G" "gesp" 150 1500 4 15 1 31 7 3 2 5 4 8 2 1 3 4 109 190 15 344 31 1
"456" 1 291 1781 "/" "0" "sonaPRP" "g_Hammer.wav" "Trompe__.bmp" "G_g_150_.bmp" "<" 672 "G" "gesp" 150 1500 4 15 1 31 7 3 2 5 4 8 2 1 3 4 109 190 15 344 31 1
"457" 1 292 1234 "<" "+" "sonaPRP" "g_Schiff.wav" "Esel____.bmp" "L_g_150_.bmp" "<" 277 "L" "gesp" 150 0 4 27 2 8 16 3 2 5 2 13 2 1 3 4 8 128 214 287 27 1
"458" 1 292 2866 "/" "0" "sonaPRP" "g_Schiff.wav" "Esel____.bmp" "L_g_150_.bmp" "<" 277 "L" "gesp" 150 0 4 27 2 8 16 3 2 5 2 13 2 1 3 4 8 128 214 287 27 1
"459" 1 293 1561 ">" "+" "sonaPRP" "g_Gitarr.wav" "Gitarr__.bmp" "K_n_210_.bmp" ">" 672 "K" "norm" 210 1500 1 12 1 12 4 3 2 5 5 7 2 1 3 4 53 136 12 295 389 1
"460" 1 293 855 "/" "0" "sonaPRP" "g_Gitarr.wav" "Gitarr__.bmp" "K_n_210_.bmp" ">" 672 "K" "norm" 210 1500 1 12 1 12 4 3 2 5 5 7 2 1 3 4 53 136 12 295 389 1
"461" 1 294 924 "<" "-" "sonaPRP" "g_Dudels.wav" "Pferd___.bmp" "Q_n_150_.bmp" ">" 672 "Q" "norm" 150 0 3 5 2 23 15 3 2 5 5 4 2 1 3 4 81 5 23 324 432 1
"462" 1 294 1542 "/" "0" "sonaPRP" "g_Dudels.wav" "Pferd___.bmp" "Q_n_150_.bmp" ">" 672 "Q" "norm" 150 0 3 5 2 23 15 3 2 5 5 4 2 1 3 4 81 5 23 324 432 1
"463" 1 295 886 "<" "+" "sonaPRP" "g_Hahn__.wav" "Klinge__.bmp" "F_g_210_.bmp" "<" 672 "F" "gesp" 210 1500 3 14 1 19 6 3 2 5 1 8 2 1 3 4 70 14 19 316 416 1
"464" 1 295 1735 "/" "0" "sonaPRP" "g_Hahn__.wav" "Klinge__.bmp" "F_g_210_.bmp" "<" 672 "F" "gesp" 210 1500 3 14 1 19 6 3 2 5 1 8 2 1 3 4 70 14 19 316 416 1
"465" 1 296 1400 ">" "+" "sonaPRP" "g_Elefan.wav" "Bohrer__.bmp" "G_n_210_.bmp" ">" 277 "G" "norm" 210 1500 3 6 1 4 2 3 2 5 1 5 2 1 3 4 4 6 200 274 362 1
"466" 1 296 1221 "/" "0" "sonaPRP" "g_Elefan.wav" "Bohrer__.bmp" "G_n_210_.bmp" ">" 277 "G" "norm" 210 1500 3 6 1 4 2 3 2 5 1 5 2 1 3 4 4 6 200 274 362 1
"467" 1 297 1152 "<" "+" "sonaPRP" "g_Trompe.wav" "Pferd___.bmp" "Z_g_210_.bmp" "<" 277 "Z" "gesp" 210 1500 4 31 1 23 15 3 2 5 5 14 2 1 3 4 82 164 23 325 31 1
"468" 1 297 1586 "/" "0" "sonaPRP" "g_Trompe.wav" "Pferd___.bmp" "Z_g_210_.bmp" "<" 277 "Z" "gesp" 210 1500 4 31 1 23 15 3 2 5 5 14 2 1 3 4 82 164 23 325 31 1
"469" 1 298 1570 "<" "+" "sonaPRP" "g_Hund__.wav" "Tromme__.bmp" "B_g_150_.bmp" "<" 672 "B" "gesp" 150 0 4 17 2 30 12 3 2 5 1 8 2 1 3 4 17 187 256 340 30 1
"470" 1 298 2162 "/" "0" "sonaPRP" "g_Hund__.wav" "Tromme__.bmp" "B_g_150_.bmp" "<" 672 "B" "gesp" 150 0 4 17 2 30 12 3 2 5 1 8 2 1 3 4 17 187 256 340 30 1
"471" 1 299 1230 ">" "+" "sonaPRP" "g_Auto__.wav" "Loewe___.bmp" "G_n_150_.bmp" ">" 672 "G" "norm" 150 0 4 2 2 21 3 3 2 6 2 2 4 2 1 3 2 21 235 321 425 1
"472" 1 299 2056 "/" "0" "sonaPRP" "g_Auto__.wav" "Loewe___.bmp" "G_n_150_.bmp" ">" 672 "G" "norm" 150 0 4 2 2 21 3 3 2 6 2 2 4 2 1 3 2 21 235 321 425 1
"473" 1 300 1561 "<" "-" "sonaPRP" "g_Klinge.wav" "Glocke__.bmp" "Z_n_210_.bmp" ">" 277 "Z" "norm" 210 0 2 19 2 13 5 3 2 6 6 9 4 2 1 3 13 155 19 315 415 1
"474" 1 300 2328 "/" "0" "sonaPRP" "g_Klinge.wav" "Glocke__.bmp" "Z_n_210_.bmp" ">" 277 "Z" "norm" 210 0 2 19 2 13 5 3 2 6 6 9 4 2 1 3 13 155 19 315 415 1
"475" 1 301 1197 "<" "+" "sonaPRP" "g_Zug___.wav" "Schiff__.bmp" "B_g_210_.bmp" "<" 277 "B" "gesp" 210 1500 2 32 1 27 16 3 2 6 2 15 4 2 1 3 111 32 261 346 27 1
"476" 1 301 2224 "/" "0" "sonaPRP" "g_Zug___.wav" "Schiff__.bmp" "B_g_210_.bmp" "<" 277 "B" "gesp" 210 1500 2 32 1 27 16 3 2 6 2 15 4 2 1 3 111 32 261 346 27 1
"477" 1 302 1529 "<" "+" "sonaPRP" "g_Hammer.wav" "Hammer__.bmp" "G_g_150_.bmp" "<" 672 "G" "gesp" 150 1500 1 15 1 15 7 3 2 6 4 8 4 2 1 3 59 143 15 305 399 1
"478" 1 302 822 "/" "0" "sonaPRP" "g_Hammer.wav" "Hammer__.bmp" "G_g_150_.bmp" "<" 672 "G" "gesp" 150 1500 1 15 1 15 7 3 2 6 4 8 4 2 1 3 59 143 15 305 399 1
"479" 1 303 1024 ">" "+" "sonaPRP" "g_Saege_.wav" "Hahn____.bmp" "K_n_150_.bmp" ">" 277 "K" "norm" 150 0 3 24 2 14 14 3 2 6 4 12 4 2 1 3 57 14 223 24 398 1
"480" 1 303 1749 "/" "0" "sonaPRP" "g_Saege_.wav" "Hahn____.bmp" "K_n_150_.bmp" ">" 277 "K" "norm" 150 0 3 24 2 14 14 3 2 6 4 12 4 2 1 3 57 14 223 24 398 1
"481" 1 304 1024 ">" "+" "sonaPRP" "g_Ente__.wav" "Orgel___.bmp" "B_n_210_.bmp" ">" 277 "B" "norm" 210 0 3 7 2 22 6 3 2 6 1 5 4 2 1 3 7 161 238 22 428 1
"482" 1 304 2183 "/" "1" "sonaPRP" "g_Ente__.wav" "Orgel___.bmp" "B_n_210_.bmp" ">" 277 "B" "norm" 210 0 3 7 2 22 6 3 2 6 1 5 4 2 1 3 7 161 238 22 428 1
"483" 1 305 863 "<" "+" "sonaPRP" "g_Trompe.wav" "Trompe__.bmp" "Z_g_210_.bmp" "<" 277 "Z" "gesp" 210 1500 1 31 1 31 15 3 2 6 5 14 4 2 1 3 107 188 257 341 31 1
"484" 1 305 1008 "/" "0" "sonaPRP" "g_Trompe.wav" "Trompe__.bmp" "Z_g_210_.bmp" "<" 277 "Z" "gesp" 210 1500 1 31 1 31 15 3 2 6 5 14 4 2 1 3 107 188 257 341 31 1
"485" 1 306 956 "<" "+" "sonaPRP" "g_Schere.wav" "Hahn____.bmp" "L_g_210_.bmp" "<" 672 "L" "gesp" 210 1500 4 26 1 14 14 3 2 6 4 13 4 2 1 3 58 14 224 304 26 1
"486" 1 306 1199 "/" "0" "sonaPRP" "g_Schere.wav" "Hahn____.bmp" "L_g_210_.bmp" "<" 672 "L" "gesp" 210 1500 4 26 1 14 14 3 2 6 4 13 4 2 1 3 58 14 224 304 26 1
"487" 1 307 1689 "<" "+" "sonaPRP" "g_Orgel_.wav" "Orgel___.bmp" "P_g_150_.bmp" "<" 277 "P" "gesp" 150 1500 1 22 1 22 11 3 2 6 5 11 4 2 1 3 77 160 236 22 426 1
"488" 1 307 753 "/" "0" "sonaPRP" "g_Orgel_.wav" "Orgel___.bmp" "P_g_150_.bmp" "<" 277 "P" "gesp" 150 1500 1 22 1 22 11 3 2 6 5 11 4 2 1 3 77 160 236 22 426 1
"489" 1 308 2381 "<" "-" "sonaPRP" "g_Dudels.wav" "Staubs__.bmp" "Q_n_150_.bmp" ">" 672 "Q" "norm" 150 0 4 5 2 29 15 3 2 6 5 4 4 2 1 3 103 5 29 336 445 1
"490" 1 308 3000 "-" "1" "sonaPRP" "g_Dudels.wav" "Staubs__.bmp" "Q_n_150_.bmp" ">" 672 "Q" "norm" 150 0 4 5 2 29 15 3 2 6 5 4 4 2 1 3 103 5 29 336 445 1
"491" 1 309 1111 "<" "+" "sonaPRP" "g_Schwei.wav" "Fahrra__.bmp" "K_g_210_.bmp" "<" 672 "K" "gesp" 210 0 3 28 2 9 2 3 2 6 1 13 4 2 1 3 45 131 9 28 379 1
"492" 1 309 1296 "/" "4" "sonaPRP" "g_Schwei.wav" "Fahrra__.bmp" "K_g_210_.bmp" "<" 672 "K" "gesp" 210 0 3 28 2 9 2 3 2 6 1 13 4 2 1 3 45 131 9 28 379 1
"493" 1 310 1401 "<" "+" "sonaPRP" "g_Floete.wav" "Floete__.bmp" "G_g_210_.bmp" "<" 277 "G" "gesp" 210 0 1 10 2 10 8 3 2 6 5 6 4 2 1 3 47 132 10 291 381 1
"494" 1 310 3000 "-" "4" "sonaPRP" "g_Floete.wav" "Floete__.bmp" "G_g_210_.bmp" "<" 277 "G" "gesp" 210 0 1 10 2 10 8 3 2 6 5 6 4 2 1 3 47 132 10 291 381 1
"495" 1 311 1610 "<" "+" "sonaPRP" "g_Hahn__.wav" "Orgel___.bmp" "F_g_210_.bmp" "<" 672 "F" "gesp" 210 1500 4 14 1 22 6 3 2 6 1 8 4 2 1 3 79 14 239 22 429 1
"496" 1 311 968 "/" "0" "sonaPRP" "g_Hahn__.wav" "Orgel___.bmp" "F_g_210_.bmp" "<" 672 "F" "gesp" 210 1500 4 14 1 22 6 3 2 6 1 8 4 2 1 3 79 14 239 22 429 1
"497" 1 312 1679 "<" "-" "sonaPRP" "g_Fahrra.wav" "Fahrra__.bmp" "Z_n_150_.bmp" ">" 672 "Z" "norm" 150 1500 1 9 1 9 3 3 2 6 2 6 4 2 1 3 44 129 9 288 377 1
"498" 1 312 1142 "/" "0" "sonaPRP" "g_Fahrra.wav" "Fahrra__.bmp" "Z_n_150_.bmp" ">" 672 "Z" "norm" 150 1500 1 9 1 9 3 3 2 6 2 6 4 2 1 3 44 129 9 288 377 1
"499" 1 313 1383 ">" "+" "sonaPRP" "g_Harfe_.wav" "Floete__.bmp" "Q_n_210_.bmp" ">" 277 "Q" "norm" 210 1500 2 16 1 10 8 3 2 6 5 8 4 2 1 3 62 449 10 16 404 1
"500" 1 313 925 "/" "0" "sonaPRP" "g_Harfe_.wav" "Floete__.bmp" "Q_n_210_.bmp" ">" 277 "Q" "norm" 210 1500 2 16 1 10 8 3 2 6 5 8 4 2 1 3 62 449 10 16 404 1
"501" 1 314 1582 "<" "+" "sonaPRP" "g_Tromme.wav" "Tromme__.bmp" "P_g_210_.bmp" "<" 672 "P" "gesp" 210 0 1 30 2 30 4 3 2 6 5 14 4 2 1 3 104 184 255 337 30 1
"502" 1 314 2926 "/" "0" "sonaPRP" "g_Tromme.wav" "Tromme__.bmp" "P_g_210_.bmp" "<" 672 "P" "gesp" 210 0 1 30 2 30 4 3 2 6 5 14 4 2 1 3 104 184 255 337 30 1
"503" 1 315 1251 "<" "-" "sonaPRP" "g_Affe__.wav" "Gitarr__.bmp" "L_n_210_.bmp" ">" 672 "L" "norm" 210 0 3 1 2 12 10 3 2 6 1 1 4 2 1 3 1 138 12 297 390 1
"504" 1 315 2742 "/" "0" "sonaPRP" "g_Affe__.wav" "Gitarr__.bmp" "L_n_210_.bmp" ">" 672 "L" "norm" 210 0 3 1 2 12 10 3 2 6 1 1 4 2 1 3 1 138 12 297 390 1
"505" 1 316 753 ">" "+" "sonaPRP" "g_Glocke.wav" "Schwei__.bmp" "F_n_150_.bmp" ">" 277 "F" "norm" 150 1500 3 13 1 28 5 3 2 6 6 7 4 2 1 3 13 180 254 28 441 1
"506" 1 316 851 "/" "0" "sonaPRP" "g_Glocke.wav" "Schwei__.bmp" "F_n_150_.bmp" ">" 277 "F" "norm" 150 1500 3 13 1 28 5 3 2 6 6 7 4 2 1 3 13 180 254 28 441 1
"507" 1 317 1476 "<" "+" "sonaPRP" "g_Pferd_.wav" "Hund____.bmp" "Q_g_150_.bmp" "<" 672 "Q" "gesp" 150 1500 2 23 1 17 12 3 2 6 1 6 4 2 1 3 17 163 23 323 431 1
"508" 1 317 1438 "/" "3" "sonaPRP" "g_Pferd_.wav" "Hund____.bmp" "Q_g_150_.bmp" "<" 672 "Q" "gesp" 150 1500 2 23 1 17 12 3 2 6 1 6 4 2 1 3 17 163 23 323 431 1
"509" 1 318 1557 "<" "+" "sonaPRP" "g_Schiff.wav" "Schiff__.bmp" "L_g_150_.bmp" "<" 277 "L" "gesp" 150 0 1 27 2 27 16 3 2 6 2 13 4 2 1 3 92 177 249 329 27 1
"510" 1 318 2202 "/" "1" "sonaPRP" "g_Schiff.wav" "Schiff__.bmp" "L_g_150_.bmp" "<" 277 "L" "gesp" 150 0 1 27 2 27 16 3 2 6 2 13 4 2 1 3 92 177 249 329 27 1
"511" 1 319 1454 ">" "+" "sonaPRP" "g_Kuh___.wav" "Gitarr__.bmp" "P_n_210_.bmp" ">" 672 "P" "norm" 210 1500 4 20 1 12 10 3 2 6 1 9 4 2 1 3 55 139 12 20 391 1
"512" 1 319 1907 "/" "3" "sonaPRP" "g_Kuh___.wav" "Gitarr__.bmp" "P_n_210_.bmp" ">" 672 "P" "norm" 210 1500 4 20 1 12 10 3 2 6 1 9 4 2 1 3 55 139 12 20 391 1
"513" 1 320 1777 "<" "+" "sonaPRP" "g_Loewe_.wav" "Katze___.bmp" "Q_g_210_.bmp" "<" 277 "Q" "gesp" 210 0 2 21 2 18 9 3 2 6 1 10 4 2 1 3 75 21 18 319 423 1
"514" 1 320 2056 "/" "0" "sonaPRP" "g_Loewe_.wav" "Katze___.bmp" "Q_g_210_.bmp" "<" 277 "Q" "gesp" 210 0 2 21 2 18 9 3 2 6 1 10 4 2 1 3 75 21 18 319 423 1
"515" 1 321 1173 ">" "+" "sonaPRP" "g_Gitarr.wav" "Tromme__.bmp" "K_n_210_.bmp" ">" 672 "K" "norm" 210 1500 2 12 1 30 4 3 2 6 5 7 4 2 1 3 54 137 12 296 30 1
"516" 1 321 894 "/" "0" "sonaPRP" "g_Gitarr.wav" "Tromme__.bmp" "K_n_210_.bmp" ">" 672 "K" "norm" 210 1500 2 12 1 30 4 3 2 6 5 7 4 2 1 3 54 137 12 296 30 1
"517" 1 322 944 ">" "+" "sonaPRP" "g_Besen_.wav" "Auto____.bmp" "L_n_150_.bmp" ">" 277 "L" "norm" 150 1500 3 3 1 2 1 3 2 6 3 3 4 2 1 3 2 3 196 267 354 1
"518" 1 322 947 "/" "0" "sonaPRP" "g_Besen_.wav" "Auto____.bmp" "L_n_150_.bmp" ">" 277 "L" "norm" 150 1500 3 3 1 2 1 3 2 6 3 3 4 2 1 3 2 3 196 267 354 1
"519" 1 323 758 ">" "+" "sonaPRP" "g_Esel__.wav" "Schaf___.bmp" "P_n_150_.bmp" ">" 277 "P" "norm" 150 0 2 8 2 25 13 3 2 6 1 5 4 2 1 3 8 127 212 25 375 1
"520" 1 323 2018 "/" "3" "sonaPRP" "g_Esel__.wav" "Schaf___.bmp" "P_n_150_.bmp" ">" 277 "P" "norm" 150 0 2 8 2 25 13 3 2 6 1 5 4 2 1 3 8 127 212 25 375 1
"521" 1 324 1357 "<" "+" "sonaPRP" "g_Hund__.wav" "Hund____.bmp" "B_g_150_.bmp" "<" 672 "B" "gesp" 150 0 1 17 2 17 12 3 2 6 1 8 4 2 1 3 17 149 228 308 406 1
"522" 1 324 1908 "/" "0" "sonaPRP" "g_Hund__.wav" "Hund____.bmp" "B_g_150_.bmp" "<" 672 "B" "gesp" 150 0 1 17 2 17 12 3 2 6 1 8 4 2 1 3 17 149 228 308 406 1
"523" 1 325 1108 ">" "+" "sonaPRP" "g_Bohrer.wav" "Dudels__.bmp" "F_n_210_.bmp" ">" 672 "F" "norm" 210 0 4 4 2 5 7 3 2 6 4 3 4 2 1 3 4 5 204 278 366 1
"524" 1 325 1745 "/" "0" "sonaPRP" "g_Bohrer.wav" "Dudels__.bmp" "F_n_210_.bmp" ">" 672 "F" "norm" 210 0 4 4 2 5 7 3 2 6 4 3 4 2 1 3 4 5 204 278 366 1
"525" 1 326 920 "<" "+" "sonaPRP" "g_Schaf_.wav" "Geige___.bmp" "K_g_150_.bmp" "<" 277 "K" "gesp" 150 1500 3 25 1 11 13 3 2 6 1 13 4 2 1 3 52 11 217 25 387 1
"526" 1 326 1650 "/" "0" "sonaPRP" "g_Schaf_.wav" "Geige___.bmp" "K_g_150_.bmp" "<" 277 "K" "gesp" 150 1500 3 25 1 11 13 3 2 6 1 13 4 2 1 3 52 11 217 25 387 1
"527" 1 327 1191 ">" "+" "sonaPRP" "g_Elefan.wav" "Fahrra__.bmp" "G_n_210_.bmp" ">" 277 "G" "norm" 210 1500 4 6 1 9 2 3 2 6 1 5 4 2 1 3 46 6 9 290 380 1
"528" 1 327 1680 "/" "0" "sonaPRP" "g_Elefan.wav" "Fahrra__.bmp" "G_n_210_.bmp" ">" 277 "G" "norm" 210 1500 4 6 1 9 2 3 2 6 1 5 4 2 1 3 46 6 9 290 380 1
"529" 1 328 950 "<" "+" "sonaPRP" "g_Geige_.wav" "Hund____.bmp" "F_g_150_.bmp" "<" 277 "F" "gesp" 150 0 4 11 2 17 11 3 2 6 5 7 4 2 1 3 17 11 230 310 409 1
"530" 1 328 1359 "/" "0" "sonaPRP" "g_Geige_.wav" "Hund____.bmp" "F_g_150_.bmp" "<" 277 "F" "gesp" 150 0 4 11 2 17 11 3 2 6 5 7 4 2 1 3 17 11 230 310 409 1
"531" 1 329 1265 "<" "+" "sonaPRP" "g_Staubs.wav" "Besen___.bmp" "Z_g_150_.bmp" "<" 672 "Z" "gesp" 150 0 2 29 2 3 1 3 2 6 3 13 4 2 1 3 100 3 29 334 444 1
"532" 1 329 1840 "/" "0" "sonaPRP" "g_Staubs.wav" "Besen___.bmp" "Z_g_150_.bmp" "<" 672 "Z" "gesp" 150 0 2 29 2 3 1 3 2 6 3 13 4 2 1 3 100 3 29 334 444 1
"533" 1 330 1178 ">" "+" "sonaPRP" "g_Katze_.wav" "Schiff__.bmp" "B_n_150_.bmp" ">" 672 "B" "norm" 150 1500 3 18 1 27 9 3 2 6 1 9 4 2 1 3 94 178 18 331 27 1
"534" 1 330 1731 "/" "0" "sonaPRP" "g_Katze_.wav" "Schiff__.bmp" "B_n_150_.bmp" ">" 672 "B" "norm" 150 1500 3 18 1 27 9 3 2 6 1 9 4 2 1 3 94 178 18 331 27 1
"535" 1 333 2036 "<" "+" "sonaPRP" "g_Telefo.wav" "Hubsch__.bmp" "G_g_150_.bmp" "<" 277 "G" "gesp" 150 0 5 97 9 96 0 0 0 0 6 14 0 0 0 0 480 482 484 486 488 1
"536" 1 333 2649 "/" "1" "sonaPRP" "g_Telefo.wav" "Hubsch__.bmp" "G_g_150_.bmp" "<" 277 "G" "gesp" 150 0 5 97 9 96 0 0 0 0 6 14 0 0 0 0 480 482 484 486 488 1
"537" 1 334 1190 "<" "-" "sonaPRP" "g_Pistol.wav" "Pfeife__.bmp" "Z_n_210_.bmp" ">" 672 "Z" "norm" 210 1500 6 94 9 93 0 0 0 0 7 16 0 0 0 0 481 483 485 487 489 1
"538" 1 334 1295 "/" "0" "sonaPRP" "g_Pistol.wav" "Pfeife__.bmp" "Z_n_210_.bmp" ">" 672 "Z" "norm" 210 1500 6 94 9 93 0 0 0 0 7 16 0 0 0 0 481 483 485 487 489 1
"539" 1 335 1025 "<" "+" "sonaPRP" "g_Tromme.wav" "Elefan__.bmp" "P_g_210_.bmp" "<" 672 "P" "gesp" 210 0 3 30 2 6 4 4 2 7 5 14 1 3 4 2 42 6 207 280 30 1
"540" 1 335 1777 "/" "0" "sonaPRP" "g_Tromme.wav" "Elefan__.bmp" "P_g_210_.bmp" "<" 672 "P" "gesp" 210 0 3 30 2 6 4 4 2 7 5 14 1 3 4 2 42 6 207 280 30 1
"541" 1 336 1163 ">" "+" "sonaPRP" "g_Ente__.wav" "Ente____.bmp" "B_n_210_.bmp" ">" 277 "B" "norm" 210 0 1 7 2 7 6 4 2 7 1 5 1 3 4 2 7 123 208 282 370 1
"542" 1 336 2005 "/" "0" "sonaPRP" "g_Ente__.wav" "Ente____.bmp" "B_n_210_.bmp" ">" 277 "B" "norm" 210 0 1 7 2 7 6 4 2 7 1 5 1 3 4 2 7 123 208 282 370 1
"543" 1 337 756 "<" "-" "sonaPRP" "g_Fahrra.wav" "Loewe___.bmp" "Z_n_150_.bmp" ">" 672 "Z" "norm" 150 1500 3 9 1 21 3 4 2 7 2 6 1 3 4 2 76 21 9 320 424 1
"544" 1 337 1167 "/" "1" "sonaPRP" "g_Fahrra.wav" "Loewe___.bmp" "Z_n_150_.bmp" ">" 672 "Z" "norm" 150 1500 3 9 1 21 3 4 2 7 2 6 1 3 4 2 76 21 9 320 424 1
"545" 1 338 977 "<" "-" "sonaPRP" "g_Harfe_.wav" "Besen___.bmp" "Q_n_210_.bmp" ">" 277 "Q" "norm" 210 1500 4 16 1 3 8 4 2 7 5 8 1 3 4 2 36 3 198 16 359 1
"546" 1 338 871 "/" "1" "sonaPRP" "g_Harfe_.wav" "Besen___.bmp" "Q_n_210_.bmp" ">" 277 "Q" "norm" 210 1500 4 16 1 3 8 4 2 7 5 8 1 3 4 2 36 3 198 16 359 1
"547" 1 339 673 "<" "+" "sonaPRP" "g_Schaf_.wav" "Schaf___.bmp" "K_g_150_.bmp" "<" 277 "K" "gesp" 150 1500 1 25 1 25 13 4 2 7 1 13 1 3 4 2 87 169 243 25 435 1
"548" 1 339 650 "/" "0" "sonaPRP" "g_Schaf_.wav" "Schaf___.bmp" "K_g_150_.bmp" "<" 277 "K" "gesp" 150 1500 1 25 1 25 13 4 2 7 1 13 1 3 4 2 87 169 243 25 435 1
"549" 1 340 960 ">" "+" "sonaPRP" "g_Bohrer.wav" "Hammer__.bmp" "F_n_210_.bmp" ">" 672 "F" "norm" 210 0 2 4 2 15 7 4 2 7 4 3 1 3 4 2 4 121 15 273 361 1
"550" 1 340 1734 "/" "0" "sonaPRP" "g_Bohrer.wav" "Hammer__.bmp" "F_n_210_.bmp" ">" 672 "F" "norm" 210 0 2 4 2 15 7 4 2 7 4 3 1 3 4 2 4 121 15 273 361 1
"551" 1 341 962 "<" "+" "sonaPRP" "g_Loewe_.wav" "Schiff__.bmp" "Q_g_210_.bmp" "<" 277 "Q" "gesp" 210 0 4 21 2 27 9 4 2 7 1 10 1 3 4 2 95 21 251 332 27 1
"552" 1 341 1322 "/" "0" "sonaPRP" "g_Loewe_.wav" "Schiff__.bmp" "Q_g_210_.bmp" "<" 277 "Q" "gesp" 210 0 4 21 2 27 9 4 2 7 1 10 1 3 4 2 95 21 251 332 27 1
"553" 1 342 1446 "<" "+" "sonaPRP" "g_Floete.wav" "Besen___.bmp" "G_g_210_.bmp" "<" 277 "G" "gesp" 210 0 3 10 2 3 8 4 2 7 5 6 1 3 4 2 35 3 10 271 358 1
"554" 1 342 2210 "/" "0" "sonaPRP" "g_Floete.wav" "Besen___.bmp" "G_g_210_.bmp" "<" 277 "G" "gesp" 210 0 3 10 2 3 8 4 2 7 5 6 1 3 4 2 35 3 10 271 358 1
"555" 1 343 1326 "<" "+" "sonaPRP" "g_Orgel_.wav" "Hund____.bmp" "P_g_150_.bmp" "<" 277 "P" "gesp" 150 1500 3 22 1 17 11 4 2 7 5 11 1 3 4 2 17 151 229 22 408 1
"556" 1 343 607 "/" "0" "sonaPRP" "g_Orgel_.wav" "Hund____.bmp" "P_g_150_.bmp" "<" 277 "P" "gesp" 150 1500 3 22 1 17 11 4 2 7 5 11 1 3 4 2 17 151 229 22 408 1
"557" 1 344 1268 ">" "+" "sonaPRP" "g_Affe__.wav" "Affe____.bmp" "L_n_210_.bmp" ">" 672 "L" "norm" 210 0 1 1 2 1 10 4 2 7 1 1 1 3 4 2 1 113 191 263 349 1
"558" 1 344 1801 "/" "0" "sonaPRP" "g_Affe__.wav" "Affe____.bmp" "L_n_210_.bmp" ">" 672 "L" "norm" 210 0 1 1 2 1 10 4 2 7 1 1 1 3 4 2 1 113 191 263 349 1
"559" 1 345 1155 "<" "+" "sonaPRP" "g_Schwei.wav" "Schwei__.bmp" "K_g_210_.bmp" "<" 672 "K" "gesp" 210 0 1 28 2 28 2 4 2 7 1 13 1 3 4 2 96 179 252 28 439 1
"560" 1 345 1901 "/" "0" "sonaPRP" "g_Schwei.wav" "Schwei__.bmp" "K_g_210_.bmp" "<" 672 "K" "gesp" 210 0 1 28 2 28 2 4 2 7 1 13 1 3 4 2 96 179 252 28 439 1
"561" 1 346 1123 "<" "+" "sonaPRP" "g_Geige_.wav" "Orgel___.bmp" "F_g_150_.bmp" "<" 277 "F" "gesp" 150 0 2 11 2 22 11 4 2 7 5 7 1 3 4 2 51 11 216 22 386 1
"562" 1 346 1489 "/" "0" "sonaPRP" "g_Geige_.wav" "Orgel___.bmp" "F_g_150_.bmp" "<" 277 "F" "gesp" 150 0 2 11 2 22 11 4 2 7 5 7 1 3 4 2 51 11 216 22 386 1
"563" 1 347 1063 ">" "+" "sonaPRP" "g_Besen_.wav" "Besen___.bmp" "L_n_150_.bmp" ">" 277 "L" "norm" 150 1500 1 3 1 3 1 4 2 7 3 3 1 3 4 2 33 3 197 269 356 1
"564" 1 347 729 "/" "0" "sonaPRP" "g_Besen_.wav" "Besen___.bmp" "L_n_150_.bmp" ">" 277 "L" "norm" 150 1500 1 3 1 3 1 4 2 7 3 3 1 3 4 2 33 3 197 269 356 1
"565" 1 348 1040 "<" "-" "sonaPRP" "g_Gitarr.wav" "Elefan__.bmp" "K_n_210_.bmp" ">" 672 "K" "norm" 210 1500 4 12 1 6 4 4 2 7 5 7 1 3 4 2 43 6 12 281 369 1
"566" 1 348 809 "/" "0" "sonaPRP" "g_Gitarr.wav" "Elefan__.bmp" "K_n_210_.bmp" ">" 672 "K" "norm" 210 1500 4 12 1 6 4 4 2 7 5 7 1 3 4 2 43 6 12 281 369 1
"567" 1 349 811 "<" "+" "sonaPRP" "g_Hahn__.wav" "Ente____.bmp" "F_g_210_.bmp" "<" 672 "F" "gesp" 210 1500 2 14 1 7 6 4 2 7 1 8 1 3 4 2 7 14 222 303 397 1
"568" 1 349 1318 "/" "0" "sonaPRP" "g_Hahn__.wav" "Ente____.bmp" "F_g_210_.bmp" "<" 672 "F" "gesp" 210 1500 2 14 1 7 6 4 2 7 1 8 1 3 4 2 7 14 222 303 397 1
"569" 1 350 1383 "<" "+" "sonaPRP" "g_Schiff.wav" "Harfe___.bmp" "L_g_150_.bmp" "<" 277 "L" "gesp" 150 0 3 27 2 16 16 4 2 7 2 13 1 3 4 2 63 148 226 16 27 1
"570" 1 350 1872 "/" "1" "sonaPRP" "g_Schiff.wav" "Harfe___.bmp" "L_g_150_.bmp" "<" 277 "L" "gesp" 150 0 3 27 2 16 16 4 2 7 2 13 1 3 4 2 63 148 226 16 27 1
"571" 1 351 836 ">" "+" "sonaPRP" "g_Kuh___.wav" "Affe____.bmp" "P_n_210_.bmp" ">" 672 "P" "norm" 210 1500 2 20 1 1 10 4 2 7 1 9 1 3 4 2 1 158 232 20 419 1
"572" 1 351 1537 "/" "0" "sonaPRP" "g_Kuh___.wav" "Affe____.bmp" "P_n_210_.bmp" ">" 672 "P" "norm" 210 1500 2 20 1 1 10 4 2 7 1 9 1 3 4 2 1 158 232 20 419 1
"573" 1 352 1685 "<" "+" "sonaPRP" "g_Trompe.wav" "Staubs__.bmp" "Z_g_210_.bmp" "<" 277 "Z" "gesp" 210 1500 3 31 1 29 15 4 2 7 5 14 1 3 4 2 101 183 29 335 31 1
"574" 1 352 1734 "/" "0" "sonaPRP" "g_Trompe.wav" "Staubs__.bmp" "Z_g_210_.bmp" "<" 277 "Z" "gesp" 210 1500 3 31 1 29 15 4 2 7 5 14 1 3 4 2 101 183 29 335 31 1
"575" 1 353 1268 ">" "+" "sonaPRP" "g_Auto__.wav" "Fahrra__.bmp" "G_n_150_.bmp" ">" 672 "G" "norm" 150 0 2 2 2 9 3 4 2 7 2 2 1 3 4 2 2 118 9 266 353 1
"576" 1 353 2015 "/" "0" "sonaPRP" "g_Auto__.wav" "Fahrra__.bmp" "G_n_150_.bmp" ">" 672 "G" "norm" 150 0 2 2 2 9 3 4 2 7 2 2 1 3 4 2 2 118 9 266 353 1
"577" 1 354 712 ">" "+" "sonaPRP" "g_Katze_.wav" "Katze___.bmp" "B_n_150_.bmp" ">" 672 "B" "norm" 150 1500 1 18 1 18 9 4 2 7 1 9 1 3 4 2 65 152 18 311 410 1
"578" 1 354 1388 "/" "0" "sonaPRP" "g_Katze_.wav" "Katze___.bmp" "B_n_150_.bmp" ">" 672 "B" "norm" 150 1500 1 18 1 18 9 4 2 7 1 9 1 3 4 2 65 152 18 311 410 1
"579" 1 355 1147 ">" "-" "sonaPRP" "g_Staubs.wav" "Auto____.bmp" "Z_g_150_.bmp" "<" 672 "Z" "gesp" 150 0 4 29 2 2 1 4 2 7 3 13 1 3 4 2 2 119 29 268 355 1
"580" 1 355 1929 "/" "0" "sonaPRP" "g_Staubs.wav" "Auto____.bmp" "Z_g_150_.bmp" "<" 672 "Z" "gesp" 150 0 4 29 2 2 1 4 2 7 3 13 1 3 4 2 2 119 29 268 355 1
"581" 1 356 832 ">" "+" "sonaPRP" "g_Elefan.wav" "Schwei__.bmp" "G_n_210_.bmp" ">" 277 "G" "norm" 210 1500 2 6 1 28 2 4 2 7 1 5 1 3 4 2 41 6 206 28 368 1
"582" 1 356 998 "/" "0" "sonaPRP" "g_Elefan.wav" "Schwei__.bmp" "G_n_210_.bmp" ">" 277 "G" "norm" 210 1500 2 6 1 28 2 4 2 7 1 5 1 3 4 2 41 6 206 28 368 1
"583" 1 357 1109 "<" "+" "sonaPRP" "g_Pferd_.wav" "Zug_____.bmp" "Q_g_150_.bmp" "<" 672 "Q" "gesp" 150 1500 4 23 1 32 12 4 2 7 1 6 1 3 4 2 112 32 23 348 448 1
"584" 1 357 1392 "/" "0" "sonaPRP" "g_Pferd_.wav" "Zug_____.bmp" "Q_g_150_.bmp" "<" 672 "Q" "gesp" 150 1500 4 23 1 32 12 4 2 7 1 6 1 3 4 2 112 32 23 348 448 1
"585" 1 358 1153 ">" "+" "sonaPRP" "g_Saege_.wav" "Saege___.bmp" "K_n_150_.bmp" ">" 277 "K" "norm" 150 0 1 24 2 24 14 4 2 7 4 12 1 3 4 2 83 165 240 24 433 1
"586" 1 358 1715 "/" "0" "sonaPRP" "g_Saege_.wav" "Saege___.bmp" "K_n_150_.bmp" ">" 277 "K" "norm" 150 0 1 24 2 24 14 4 2 7 4 12 1 3 4 2 83 165 240 24 433 1
"587" 1 359 1413 "<" "+" "sonaPRP" "g_Hammer.wav" "Dudels__.bmp" "G_g_150_.bmp" "<" 672 "G" "gesp" 150 1500 3 15 1 5 7 4 2 7 4 8 1 3 4 2 39 5 15 277 365 1
"588" 1 359 1220 "/" "0" "sonaPRP" "g_Hammer.wav" "Dudels__.bmp" "G_g_150_.bmp" "<" 672 "G" "gesp" 150 1500 3 15 1 5 7 4 2 7 4 8 1 3 4 2 39 5 15 277 365 1
"589" 1 360 1524 "<" "-" "sonaPRP" "g_Klinge.wav" "Schwei__.bmp" "Z_n_210_.bmp" ">" 277 "Z" "norm" 210 0 4 19 2 28 5 4 2 7 6 9 1 3 4 2 98 181 19 28 442 1
"590" 1 360 2222 "/" "0" "sonaPRP" "g_Klinge.wav" "Schwei__.bmp" "Z_n_210_.bmp" ">" 277 "Z" "norm" 210 0 4 19 2 28 5 4 2 7 6 9 1 3 4 2 98 181 19 28 442 1
"591" 1 361 903 ">" "-" "sonaPRP" "g_Zug___.wav" "Harfe___.bmp" "B_g_210_.bmp" "<" 277 "B" "gesp" 210 1500 4 32 1 16 16 4 2 7 2 15 1 3 4 2 64 32 227 16 405 1
"592" 1 361 935 "/" "0" "sonaPRP" "g_Zug___.wav" "Harfe___.bmp" "B_g_210_.bmp" "<" 277 "B" "gesp" 210 1500 4 32 1 16 16 4 2 7 2 15 1 3 4 2 64 32 227 16 405 1
"593" 1 362 1291 ">" "+" "sonaPRP" "g_Dudels.wav" "Trompe__.bmp" "Q_n_150_.bmp" ">" 672 "Q" "norm" 150 0 2 5 2 31 15 4 2 7 5 4 1 3 4 2 38 5 203 276 31 1
"594" 1 362 2805 "/" "0" "sonaPRP" "g_Dudels.wav" "Trompe__.bmp" "Q_n_150_.bmp" ">" 672 "Q" "norm" 150 0 2 5 2 31 15 4 2 7 5 4 1 3 4 2 38 5 203 276 31 1
"595" 1 363 893 "<" "+" "sonaPRP" "g_Schere.wav" "Saege___.bmp" "L_g_210_.bmp" "<" 672 "L" "gesp" 210 1500 2 26 1 24 14 4 2 7 4 13 1 3 4 2 90 174 247 24 26 1
"596" 1 363 846 "/" "0" "sonaPRP" "g_Schere.wav" "Saege___.bmp" "L_g_210_.bmp" "<" 672 "L" "gesp" 210 1500 2 26 1 24 14 4 2 7 4 13 1 3 4 2 90 174 247 24 26 1
"597" 1 364 1249 "<" "+" "sonaPRP" "g_Hund__.wav" "Zug_____.bmp" "B_g_150_.bmp" "<" 672 "B" "gesp" 150 0 3 17 2 32 12 4 2 7 1 8 1 3 4 2 17 32 262 347 447 1
"598" 1 364 1811 "/" "0" "sonaPRP" "g_Hund__.wav" "Zug_____.bmp" "B_g_150_.bmp" "<" 672 "B" "gesp" 150 0 3 17 2 32 12 4 2 7 1 8 1 3 4 2 17 32 262 347 447 1
"599" 1 365 1852 ">" "+" "sonaPRP" "g_Esel__.wav" "Geige___.bmp" "P_n_150_.bmp" ">" 277 "P" "norm" 150 0 4 8 2 11 13 4 2 7 1 5 1 3 4 2 8 11 218 294 388 1
"600" 1 365 2753 "/" "1" "sonaPRP" "g_Esel__.wav" "Geige___.bmp" "P_n_150_.bmp" ">" 277 "P" "norm" 150 0 4 8 2 11 13 4 2 7 1 5 1 3 4 2 8 11 218 294 388 1
"601" 1 366 1139 ">" "+" "sonaPRP" "g_Glocke.wav" "Glocke__.bmp" "F_n_150_.bmp" ">" 277 "F" "norm" 150 1500 1 13 1 13 5 4 2 7 6 7 1 3 4 2 13 140 219 298 392 1
"602" 1 366 657 "/" "0" "sonaPRP" "g_Glocke.wav" "Glocke__.bmp" "F_n_150_.bmp" ">" 277 "F" "norm" 150 1500 1 13 1 13 5 4 2 7 6 7 1 3 4 2 13 140 219 298 392 1
"603" 1 367 976 ">" "+" "sonaPRP" "g_Affe__.wav" "Floete__.bmp" "L_n_210_.bmp" ">" 672 "L" "norm" 210 0 4 1 2 10 10 4 2 8 1 1 3 4 2 1 1 135 10 292 384 1
"604" 1 367 1573 "/" "0" "sonaPRP" "g_Affe__.wav" "Floete__.bmp" "L_n_210_.bmp" ">" 672 "L" "norm" 210 0 4 1 2 10 10 4 2 8 1 1 3 4 2 1 1 135 10 292 384 1
"605" 1 368 2010 "<" "+" "sonaPRP" "g_Staubs.wav" "Kuh_____.bmp" "Z_g_150_.bmp" "<" 672 "Z" "gesp" 150 0 3 29 2 20 1 4 2 8 3 13 3 4 2 1 72 159 29 20 420 1
"606" 1 368 2712 "/" "0" "sonaPRP" "g_Staubs.wav" "Kuh_____.bmp" "Z_g_150_.bmp" "<" 672 "Z" "gesp" 150 0 3 29 2 20 1 4 2 8 3 13 3 4 2 1 72 159 29 20 420 1
"607" 1 369 1640 "<" "+" "sonaPRP" "g_Floete.wav" "Harfe___.bmp" "G_g_210_.bmp" "<" 277 "G" "gesp" 210 0 2 10 2 16 8 4 2 8 5 6 3 4 2 1 48 133 10 16 382 1
"608" 1 369 2401 "/" "0" "sonaPRP" "g_Floete.wav" "Harfe___.bmp" "G_g_210_.bmp" "<" 277 "G" "gesp" 210 0 2 10 2 16 8 4 2 8 5 6 3 4 2 1 48 133 10 16 382 1
"609" 1 370 1311 ">" "+" "sonaPRP" "g_Katze_.wav" "Glocke__.bmp" "B_n_150_.bmp" ">" 672 "B" "norm" 150 1500 4 18 1 13 9 4 2 8 1 9 3 4 2 1 13 142 18 301 395 1
"610" 1 370 882 "/" "0" "sonaPRP" "g_Katze_.wav" "Glocke__.bmp" "B_n_150_.bmp" ">" 672 "B" "norm" 150 1500 4 18 1 13 9 4 2 8 1 9 3 4 2 1 13 142 18 301 395 1
"611" 1 371 951 ">" "+" "sonaPRP" "g_Fahrra.wav" "Auto____.bmp" "Z_n_150_.bmp" ">" 672 "Z" "norm" 150 1500 2 9 1 2 3 4 2 8 2 6 3 4 2 1 2 130 9 289 378 1
"612" 1 371 650 "/" "1" "sonaPRP" "g_Fahrra.wav" "Auto____.bmp" "Z_n_150_.bmp" ">" 672 "Z" "norm" 150 1500 2 9 1 2 3 4 2 8 2 6 3 4 2 1 2 130 9 289 378 1
"613" 1 372 1672 ">" "+" "sonaPRP" "g_Harfe_.wav" "Ente____.bmp" "Q_n_210_.bmp" ">" 277 "Q" "norm" 210 1500 3 16 1 7 8 4 2 8 5 8 3 4 2 1 7 124 210 16 372 1
"614" 1 372 932 "/" "0" "sonaPRP" "g_Harfe_.wav" "Ente____.bmp" "Q_n_210_.bmp" ">" 277 "Q" "norm" 210 1500 3 16 1 7 8 4 2 8 5 8 3 4 2 1 7 124 210 16 372 1
"615" 1 373 1016 "<" "+" "sonaPRP" "g_Geige_.wav" "Geige___.bmp" "F_g_150_.bmp" "<" 277 "F" "gesp" 150 0 1 11 2 11 11 4 2 8 5 7 3 4 2 1 50 11 215 293 385 1
"616" 1 373 1517 "/" "0" "sonaPRP" "g_Geige_.wav" "Geige___.bmp" "F_g_150_.bmp" "<" 277 "F" "gesp" 150 0 1 11 2 11 11 4 2 8 5 7 3 4 2 1 50 11 215 293 385 1
"617" 1 374 1952 "<" "+" "sonaPRP" "g_Hammer.wav" "Bohrer__.bmp" "G_g_150_.bmp" "<" 672 "G" "gesp" 150 1500 2 15 1 4 7 4 2 8 4 8 3 4 2 1 4 144 15 306 400 1
"618" 1 374 1520 "/" "0" "sonaPRP" "g_Hammer.wav" "Bohrer__.bmp" "G_g_150_.bmp" "<" 672 "G" "gesp" 150 1500 2 15 1 4 7 4 2 8 4 8 3 4 2 1 4 144 15 306 400 1
"619" 1 375 1764 "<" "+" "sonaPRP" "g_Schiff.wav" "Zug_____.bmp" "L_g_150_.bmp" "<" 277 "L" "gesp" 150 0 2 27 2 32 16 4 2 8 2 13 3 4 2 1 93 32 250 330 27 1
"620" 1 375 2764 "/" "0" "sonaPRP" "g_Schiff.wav" "Zug_____.bmp" "L_g_150_.bmp" "<" 277 "L" "gesp" 150 0 2 27 2 32 16 4 2 8 2 13 3 4 2 1 93 32 250 330 27 1
"621" 1 376 1112 "<" "-" "sonaPRP" "g_Klinge.wav" "Schere__.bmp" "Z_n_210_.bmp" ">" 277 "Z" "norm" 210 0 3 19 2 26 5 4 2 8 6 9 3 4 2 1 91 175 19 327 26 1
"622" 1 376 1965 "/" "0" "sonaPRP" "g_Klinge.wav" "Schere__.bmp" "Z_n_210_.bmp" ">" 277 "Z" "norm" 210 0 3 19 2 26 5 4 2 8 6 9 3 4 2 1 91 175 19 327 26 1
"623" 1 377 1654 "<" "+" "sonaPRP" "g_Loewe_.wav" "Glocke__.bmp" "Q_g_210_.bmp" "<" 277 "Q" "gesp" 210 0 3 21 2 13 9 4 2 8 1 10 3 4 2 1 13 21 220 300 394 1
"624" 1 377 2347 "/" "0" "sonaPRP" "g_Loewe_.wav" "Glocke__.bmp" "Q_g_210_.bmp" "<" 277 "Q" "gesp" 210 0 3 21 2 13 9 4 2 8 1 10 3 4 2 1 13 21 220 300 394 1
"625" 1 378 1478 ">" "+" "sonaPRP" "g_Gitarr.wav" "Saege___.bmp" "K_n_210_.bmp" ">" 672 "K" "norm" 210 1500 3 12 1 24 4 4 2 8 5 7 3 4 2 1 85 167 12 24 434 1
"626" 1 378 897 "/" "0" "sonaPRP" "g_Gitarr.wav" "Saege___.bmp" "K_n_210_.bmp" ">" 672 "K" "norm" 210 1500 3 12 1 24 4 4 2 8 5 7 3 4 2 1 85 167 12 24 434 1
"627" 1 379 1424 ">" "+" "sonaPRP" "g_Besen_.wav" "Kuh_____.bmp" "L_n_150_.bmp" ">" 277 "L" "norm" 150 1500 4 3 1 20 1 4 2 8 3 3 3 4 2 1 73 3 233 20 421 1
"628" 1 379 833 "/" "0" "sonaPRP" "g_Besen_.wav" "Kuh_____.bmp" "L_n_150_.bmp" ">" 277 "L" "norm" 150 1500 4 3 1 20 1 4 2 8 3 3 3 4 2 1 73 3 233 20 421 1
"629" 1 380 1121 ">" "+" "sonaPRP" "g_Elefan.wav" "Elefan__.bmp" "G_n_210_.bmp" ">" 277 "G" "norm" 210 1500 1 6 1 6 2 4 2 8 1 5 3 4 2 1 40 6 205 279 367 1
"630" 1 380 733 "/" "0" "sonaPRP" "g_Elefan.wav" "Elefan__.bmp" "G_n_210_.bmp" ">" 277 "G" "norm" 210 1500 1 6 1 6 2 4 2 8 1 5 3 4 2 1 40 6 205 279 367 1
"631" 1 381 1012 "<" "+" "sonaPRP" "g_Hund__.wav" "Pferd___.bmp" "B_g_150_.bmp" "<" 672 "B" "gesp" 150 0 2 17 2 23 12 4 2 8 1 8 3 4 2 1 17 150 23 309 407 1
"632" 1 381 1816 "/" "0" "sonaPRP" "g_Hund__.wav" "Pferd___.bmp" "B_g_150_.bmp" "<" 672 "B" "gesp" 150 0 2 17 2 23 12 4 2 8 1 8 3 4 2 1 17 150 23 309 407 1
"633" 1 382 1013 ">" "+" "sonaPRP" "g_Saege_.wav" "Affe____.bmp" "K_n_150_.bmp" ">" 277 "K" "norm" 150 0 4 24 2 1 14 4 2 8 4 12 3 4 2 1 1 116 194 24 351 1
"634" 1 382 1567 "/" "0" "sonaPRP" "g_Saege_.wav" "Affe____.bmp" "K_n_150_.bmp" ">" 277 "K" "norm" 150 0 4 24 2 1 14 4 2 8 4 12 3 4 2 1 1 116 194 24 351 1
"635" 1 383 1258 ">" "+" "sonaPRP" "g_Esel__.wav" "Hammer__.bmp" "P_n_150_.bmp" ">" 277 "P" "norm" 150 0 3 8 2 15 13 4 2 8 1 5 3 4 2 1 8 145 15 307 401 1
